"Subject","Session","Trial","CorrectAnswer","FarAway","Littered","PictureTarget.ACC","PictureTarget.RT","SceneLetter","Side","Target","TrialList"
10,1,1,2,0,0,1,635,"d","right","00rd.bmp",8
10,1,3,1,0,0,1,1144,"e","left","00le.bmp",4
10,1,12,1,0,0,1,570,"c","left","00lc.bmp",2
10,1,15,1,0,0,1,589,"b","left","00lb.bmp",1
10,1,17,1,0,0,1,754,"f","left","00lf.bmp",5
10,1,18,1,0,0,1,601,"d","left","00ld.bmp",3
10,1,27,2,0,0,1,507,"c","right","00rc.bmp",7
10,1,33,2,0,0,1,469,"b","right","00rb.bmp",6
10,1,38,2,0,0,1,567,"f","right","00rf.bmp",10
10,1,39,2,0,0,1,783,"e","right","00re.bmp",9
10,2,1,1,0,0,1,493,"d","left","00ld.bmp",3
10,2,3,1,0,0,1,552,"c","left","00lc.bmp",2
10,2,5,2,0,0,1,552,"d","right","00rd.bmp",8
10,2,8,2,0,0,1,605,"f","right","00rf.bmp",10
10,2,20,1,0,0,1,625,"e","left","00le.bmp",4
10,2,27,2,0,0,1,424,"b","right","00rb.bmp",6
10,2,28,1,0,0,1,407,"b","left","00lb.bmp",1
10,2,31,2,0,0,1,466,"c","right","00rc.bmp",7
10,2,34,2,0,0,1,711,"e","right","00re.bmp",9
10,2,38,1,0,0,1,470,"f","left","00lf.bmp",5
10,3,9,2,0,0,1,537,"d","right","00rd.bmp",8
10,3,12,1,0,0,1,401,"e","left","00le.bmp",4
10,3,13,1,0,0,1,402,"d","left","00ld.bmp",3
10,3,17,2,0,0,1,408,"e","right","00re.bmp",9
10,3,22,1,0,0,1,409,"c","left","00lc.bmp",2
10,3,25,2,0,0,1,434,"f","right","00rf.bmp",10
10,3,30,1,0,0,1,459,"b","left","00lb.bmp",1
10,3,35,2,0,0,1,462,"b","right","00rb.bmp",6
10,3,36,2,0,0,1,469,"c","right","00rc.bmp",7
10,3,40,1,0,0,1,516,"f","left","00lf.bmp",5
10,4,1,2,0,0,1,403,"e","right","00re.bmp",9
10,4,2,1,0,0,1,378,"c","left","00lc.bmp",2
10,4,15,1,0,0,1,378,"b","left","00lb.bmp",1
10,4,16,2,0,0,1,413,"f","right","00rf.bmp",10
10,4,19,2,0,0,1,407,"b","right","00rb.bmp",6
10,4,24,2,0,0,1,423,"c","right","00rc.bmp",7
10,4,28,2,0,0,1,414,"d","right","00rd.bmp",8
10,4,29,1,0,0,1,560,"e","left","00le.bmp",4
10,4,30,1,0,0,1,399,"d","left","00ld.bmp",3
10,4,39,1,0,0,1,523,"f","left","00lf.bmp",5
12,1,2,2,0,0,1,502,"b","right","00rb.bmp",6
12,1,10,1,0,0,1,529,"b","left","00lb.bmp",1
12,1,11,2,0,0,1,416,"e","right","00re.bmp",9
12,1,18,1,0,0,1,518,"e","left","00le.bmp",4
12,1,25,2,0,0,1,467,"c","right","00rc.bmp",7
12,1,26,1,0,0,1,528,"f","left","00lf.bmp",5
12,1,29,2,0,0,1,556,"d","right","00rd.bmp",8
12,1,32,2,0,0,1,483,"f","right","00rf.bmp",10
12,1,34,1,0,0,1,496,"c","left","00lc.bmp",2
12,1,40,1,0,0,1,554,"d","left","00ld.bmp",3
12,2,2,1,0,0,1,475,"d","left","00ld.bmp",3
12,2,6,2,0,0,1,423,"e","right","00re.bmp",9
12,2,7,2,0,0,1,439,"c","right","00rc.bmp",7
12,2,10,2,0,0,1,438,"b","right","00rb.bmp",6
12,2,22,1,0,0,1,455,"f","left","00lf.bmp",5
12,2,29,2,0,0,1,429,"f","right","00rf.bmp",10
12,2,34,2,0,0,1,447,"d","right","00rd.bmp",8
12,2,35,1,0,0,1,467,"b","left","00lb.bmp",1
12,2,37,1,0,0,1,477,"c","left","00lc.bmp",2
12,2,40,1,0,0,1,508,"e","left","00le.bmp",4
12,3,7,1,0,0,1,499,"b","left","00lb.bmp",1
12,3,9,2,0,0,1,426,"e","right","00re.bmp",9
12,3,10,1,0,0,1,460,"c","left","00lc.bmp",2
12,3,15,2,0,0,1,431,"b","right","00rb.bmp",6
12,3,16,1,0,0,1,409,"e","left","00le.bmp",4
12,3,19,2,0,0,1,470,"f","right","00rf.bmp",10
12,3,22,2,0,0,1,514,"c","right","00rc.bmp",7
12,3,23,2,0,0,1,522,"d","right","00rd.bmp",8
12,3,33,1,0,0,1,587,"f","left","00lf.bmp",5
12,3,38,1,0,0,1,563,"d","left","00ld.bmp",3
12,4,3,1,0,0,1,477,"b","left","00lb.bmp",1
12,4,10,2,0,0,0,624,"e","right","00re.bmp",9
12,4,14,1,0,0,1,538,"f","left","00lf.bmp",5
12,4,15,1,0,0,1,481,"c","left","00lc.bmp",2
12,4,16,2,0,0,1,486,"d","right","00rd.bmp",8
12,4,23,2,0,0,1,484,"f","right","00rf.bmp",10
12,4,28,1,0,0,1,412,"d","left","00ld.bmp",3
12,4,29,2,0,0,1,392,"b","right","00rb.bmp",6
12,4,32,2,0,0,1,451,"c","right","00rc.bmp",7
12,4,34,1,0,0,1,477,"e","left","00le.bmp",4
13,1,6,1,0,0,1,490,"c","left","00lc.bmp",2
13,1,7,2,0,0,1,393,"b","right","00rb.bmp",6
13,1,9,1,0,0,1,473,"b","left","00lb.bmp",1
13,1,11,1,0,0,1,376,"d","left","00ld.bmp",3
13,1,12,2,0,0,1,406,"c","right","00rc.bmp",7
13,1,14,2,0,0,1,489,"f","right","00rf.bmp",10
13,1,19,2,0,0,1,573,"e","right","00re.bmp",9
13,1,23,2,0,0,1,430,"d","right","00rd.bmp",8
13,1,24,1,0,0,1,871,"e","left","00le.bmp",4
13,1,32,1,0,0,1,452,"f","left","00lf.bmp",5
13,2,2,2,0,0,1,401,"c","right","00rc.bmp",7
13,2,5,2,0,0,1,367,"e","right","00re.bmp",9
13,2,11,2,0,0,1,386,"b","right","00rb.bmp",6
13,2,13,1,0,0,1,484,"f","left","00lf.bmp",5
13,2,25,2,0,0,1,459,"d","right","00rd.bmp",8
13,2,31,1,0,0,1,409,"e","left","00le.bmp",4
13,2,34,2,0,0,1,472,"f","right","00rf.bmp",10
13,2,36,1,0,0,1,389,"d","left","00ld.bmp",3
13,2,38,1,0,0,1,406,"b","left","00lb.bmp",1
13,2,39,1,0,0,1,417,"c","left","00lc.bmp",2
13,3,1,1,0,0,0,516,"e","left","00le.bmp",4
13,3,8,2,0,0,1,677,"e","right","00re.bmp",9
13,3,10,2,0,0,1,504,"f","right","00rf.bmp",10
13,3,11,2,0,0,1,431,"b","right","00rb.bmp",6
13,3,15,1,0,0,1,472,"d","left","00ld.bmp",3
13,3,17,2,0,0,1,549,"d","right","00rd.bmp",8
13,3,25,1,0,0,1,429,"b","left","00lb.bmp",1
13,3,30,1,0,0,1,407,"f","left","00lf.bmp",5
13,3,32,2,0,0,1,415,"c","right","00rc.bmp",7
13,3,40,1,0,0,1,362,"c","left","00lc.bmp",2
13,4,1,2,0,0,1,430,"d","right","00rd.bmp",8
13,4,8,2,0,0,1,405,"f","right","00rf.bmp",10
13,4,10,2,0,0,1,447,"e","right","00re.bmp",9
13,4,12,1,0,0,1,465,"c","left","00lc.bmp",2
13,4,14,2,0,0,1,375,"b","right","00rb.bmp",6
13,4,21,1,0,0,1,443,"e","left","00le.bmp",4
13,4,27,1,0,0,1,431,"d","left","00ld.bmp",3
13,4,29,2,0,0,1,381,"c","right","00rc.bmp",7
13,4,38,1,0,0,1,398,"f","left","00lf.bmp",5
13,4,40,1,0,0,1,368,"b","left","00lb.bmp",1
14,1,4,2,0,0,1,580,"b","right","00rb.bmp",6
14,1,5,2,0,0,1,611,"f","right","00rf.bmp",10
14,1,13,1,0,0,1,520,"d","left","00ld.bmp",3
14,1,23,1,0,0,1,431,"c","left","00lc.bmp",2
14,1,25,1,0,0,1,497,"f","left","00lf.bmp",5
14,1,28,1,0,0,1,495,"b","left","00lb.bmp",1
14,1,29,2,0,0,1,506,"d","right","00rd.bmp",8
14,1,33,1,0,0,1,557,"e","left","00le.bmp",4
14,1,34,2,0,0,1,442,"c","right","00rc.bmp",7
14,1,38,2,0,0,1,540,"e","right","00re.bmp",9
14,2,6,1,0,0,1,599,"e","left","00le.bmp",4
14,2,8,1,0,0,1,327,"d","left","00ld.bmp",3
14,2,9,2,0,0,1,355,"b","right","00rb.bmp",6
14,2,14,2,0,0,1,372,"f","right","00rf.bmp",10
14,2,16,1,0,0,1,388,"b","left","00lb.bmp",1
14,2,18,2,0,0,1,707,"d","right","00rd.bmp",8
14,2,21,1,0,0,1,436,"c","left","00lc.bmp",2
14,2,22,2,0,0,1,433,"c","right","00rc.bmp",7
14,2,29,2,0,0,1,410,"e","right","00re.bmp",9
14,2,32,1,0,0,1,424,"f","left","00lf.bmp",5
14,3,10,2,0,0,0,614,"e","right","00re.bmp",9
14,3,11,1,0,0,1,502,"d","left","00ld.bmp",3
14,3,15,2,0,0,1,610,"f","right","00rf.bmp",10
14,3,16,1,0,0,1,525,"f","left","00lf.bmp",5
14,3,18,1,0,0,1,584,"e","left","00le.bmp",4
14,3,21,1,0,0,1,488,"c","left","00lc.bmp",2
14,3,25,1,0,0,1,423,"b","left","00lb.bmp",1
14,3,26,2,0,0,1,440,"c","right","00rc.bmp",7
14,3,30,2,0,0,1,428,"d","right","00rd.bmp",8
14,3,33,2,0,0,1,472,"b","right","00rb.bmp",6
14,4,1,1,0,0,1,391,"f","left","00lf.bmp",5
14,4,9,2,0,0,1,496,"d","right","00rd.bmp",8
14,4,18,1,0,0,1,296,"e","left","00le.bmp",4
14,4,19,1,0,0,1,466,"c","left","00lc.bmp",2
14,4,21,2,0,0,1,469,"b","right","00rb.bmp",6
14,4,29,2,0,0,1,716,"e","right","00re.bmp",9
14,4,31,1,0,0,1,477,"d","left","00ld.bmp",3
14,4,32,2,0,0,1,448,"f","right","00rf.bmp",10
14,4,33,2,0,0,1,480,"c","right","00rc.bmp",7
14,4,40,1,0,0,1,434,"b","left","00lb.bmp",1
15,1,1,1,0,0,1,395,"b","left","00lb.bmp",1
15,1,4,2,0,0,1,597,"d","right","00rd.bmp",8
15,1,8,1,0,0,1,590,"c","left","00lc.bmp",2
15,1,9,2,0,0,1,567,"f","right","00rf.bmp",10
15,1,12,2,0,0,1,453,"c","right","00rc.bmp",7
15,1,18,2,0,0,1,559,"e","right","00re.bmp",9
15,1,22,1,0,0,1,671,"e","left","00le.bmp",4
15,1,32,2,0,0,1,431,"b","right","00rb.bmp",6
15,1,35,1,0,0,1,475,"f","left","00lf.bmp",5
15,1,38,1,0,0,1,482,"d","left","00ld.bmp",3
15,2,3,1,0,0,1,527,"e","left","00le.bmp",4
15,2,9,1,0,0,1,585,"f","left","00lf.bmp",5
15,2,11,1,0,0,1,518,"b","left","00lb.bmp",1
15,2,13,1,0,0,1,453,"c","left","00lc.bmp",2
15,2,15,2,0,0,1,449,"c","right","00rc.bmp",7
15,2,16,1,0,0,1,458,"d","left","00ld.bmp",3
15,2,20,2,0,0,1,415,"d","right","00rd.bmp",8
15,2,32,2,0,0,1,463,"f","right","00rf.bmp",10
15,2,36,2,0,0,1,484,"e","right","00re.bmp",9
15,2,38,2,0,0,1,451,"b","right","00rb.bmp",6
15,3,14,1,0,0,1,457,"d","left","00ld.bmp",3
15,3,19,2,0,0,1,502,"e","right","00re.bmp",9
15,3,20,1,0,0,1,388,"e","left","00le.bmp",4
15,3,22,1,0,0,1,406,"c","left","00lc.bmp",2
15,3,25,2,0,0,1,402,"f","right","00rf.bmp",10
15,3,27,2,0,0,1,401,"b","right","00rb.bmp",6
15,3,29,2,0,0,1,389,"c","right","00rc.bmp",7
15,3,30,2,0,0,1,407,"d","right","00rd.bmp",8
15,3,34,1,0,0,1,438,"b","left","00lb.bmp",1
15,3,38,1,0,0,1,454,"f","left","00lf.bmp",5
15,4,1,1,0,0,1,642,"e","left","00le.bmp",4
15,4,5,2,0,0,1,415,"d","right","00rd.bmp",8
15,4,13,2,0,0,1,383,"c","right","00rc.bmp",7
15,4,15,2,0,0,1,352,"e","right","00re.bmp",9
15,4,17,1,0,0,1,572,"b","left","00lb.bmp",1
15,4,21,1,0,0,1,417,"d","left","00ld.bmp",3
15,4,26,1,0,0,1,408,"c","left","00lc.bmp",2
15,4,33,2,0,0,1,733,"f","right","00rf.bmp",10
15,4,37,1,0,0,1,517,"f","left","00lf.bmp",5
15,4,39,2,0,0,1,554,"b","right","00rb.bmp",6
18,1,2,1,0,0,1,505,"f","left","00lf.bmp",5
18,1,4,1,0,0,1,575,"d","left","00ld.bmp",3
18,1,14,2,0,0,1,1019,"e","right","00re.bmp",9
18,1,24,1,0,0,1,522,"c","left","00lc.bmp",2
18,1,26,2,0,0,1,483,"c","right","00rc.bmp",7
18,1,29,1,0,0,0,627,"e","left","00le.bmp",4
18,1,35,2,0,0,1,461,"b","right","00rb.bmp",6
18,1,37,2,0,0,0,592,"d","right","00rd.bmp",8
18,1,38,1,0,0,1,690,"b","left","00lb.bmp",1
18,1,40,2,0,0,1,529,"f","right","00rf.bmp",10
18,2,17,2,0,0,1,442,"c","right","00rc.bmp",7
18,2,18,2,0,0,0,612,"e","right","00re.bmp",9
18,2,20,1,0,0,1,421,"b","left","00lb.bmp",1
18,2,21,1,0,0,1,621,"e","left","00le.bmp",4
18,2,24,2,0,0,1,670,"f","right","00rf.bmp",10
18,2,28,1,0,0,1,425,"f","left","00lf.bmp",5
18,2,30,2,0,0,1,499,"d","right","00rd.bmp",8
18,2,31,1,0,0,1,411,"d","left","00ld.bmp",3
18,2,37,2,0,0,1,458,"b","right","00rb.bmp",6
18,2,38,1,0,0,1,566,"c","left","00lc.bmp",2
18,3,1,2,0,0,1,693,"b","right","00rb.bmp",6
18,3,2,1,0,0,1,382,"d","left","00ld.bmp",3
18,3,10,1,0,0,1,510,"c","left","00lc.bmp",2
18,3,12,1,0,0,1,910,"e","left","00le.bmp",4
18,3,21,2,0,0,1,744,"e","right","00re.bmp",9
18,3,22,1,0,0,1,544,"b","left","00lb.bmp",1
18,3,26,1,0,0,1,519,"f","left","00lf.bmp",5
18,3,28,2,0,0,1,584,"f","right","00rf.bmp",10
18,3,30,2,0,0,1,602,"d","right","00rd.bmp",8
18,3,35,2,0,0,1,474,"c","right","00rc.bmp",7
18,4,6,1,0,0,1,489,"c","left","00lc.bmp",2
18,4,7,2,0,0,1,444,"c","right","00rc.bmp",7
18,4,10,1,0,0,1,494,"f","left","00lf.bmp",5
18,4,21,1,0,0,1,768,"d","left","00ld.bmp",3
18,4,23,2,0,0,1,516,"d","right","00rd.bmp",8
18,4,26,2,0,0,1,698,"e","right","00re.bmp",9
18,4,30,2,0,0,1,474,"f","right","00rf.bmp",10
18,4,31,2,0,0,1,474,"b","right","00rb.bmp",6
18,4,34,1,0,0,1,792,"e","left","00le.bmp",4
18,4,36,1,0,0,1,419,"b","left","00lb.bmp",1
20,1,1,2,0,0,1,498,"d","right","00rd.bmp",8
20,1,6,2,0,0,1,399,"c","right","00rc.bmp",7
20,1,8,1,0,0,1,596,"e","left","00le.bmp",4
20,1,12,1,0,0,1,478,"d","left","00ld.bmp",3
20,1,14,2,0,0,1,479,"e","right","00re.bmp",9
20,1,15,1,0,0,1,359,"b","left","00lb.bmp",1
20,1,25,2,0,0,1,409,"f","right","00rf.bmp",10
20,1,33,2,0,0,1,389,"b","right","00rb.bmp",6
20,1,34,1,0,0,1,391,"f","left","00lf.bmp",5
20,1,39,1,0,0,1,414,"c","left","00lc.bmp",2
20,2,5,2,0,0,1,415,"e","right","00re.bmp",9
20,2,6,1,0,0,1,489,"e","left","00le.bmp",4
20,2,7,1,0,0,1,578,"d","left","00ld.bmp",3
20,2,8,2,0,0,1,515,"f","right","00rf.bmp",10
20,2,9,2,0,0,1,489,"b","right","00rb.bmp",6
20,2,26,1,0,0,1,486,"f","left","00lf.bmp",5
20,2,27,2,0,0,1,393,"d","right","00rd.bmp",8
20,2,28,2,0,0,1,414,"c","right","00rc.bmp",7
20,2,29,1,0,0,1,389,"b","left","00lb.bmp",1
20,2,30,1,0,0,1,441,"c","left","00lc.bmp",2
20,3,5,2,0,0,1,432,"e","right","00re.bmp",9
20,3,9,1,0,0,1,370,"b","left","00lb.bmp",1
20,3,10,2,0,0,1,362,"f","right","00rf.bmp",10
20,3,12,1,0,0,1,424,"f","left","00lf.bmp",5
20,3,13,1,0,0,1,409,"d","left","00ld.bmp",3
20,3,14,2,0,0,1,383,"d","right","00rd.bmp",8
20,3,20,2,0,0,1,386,"c","right","00rc.bmp",7
20,3,24,2,0,0,1,514,"b","right","00rb.bmp",6
20,3,29,1,0,0,1,411,"c","left","00lc.bmp",2
20,3,38,1,0,0,1,387,"e","left","00le.bmp",4
20,4,1,2,0,0,1,449,"e","right","00re.bmp",9
20,4,3,1,0,0,1,400,"b","left","00lb.bmp",1
20,4,11,1,0,0,1,399,"c","left","00lc.bmp",2
20,4,13,2,0,0,1,380,"f","right","00rf.bmp",10
20,4,15,2,0,0,1,395,"c","right","00rc.bmp",7
20,4,16,2,0,0,1,392,"d","right","00rd.bmp",8
20,4,23,2,0,0,1,402,"b","right","00rb.bmp",6
20,4,26,1,0,0,1,449,"f","left","00lf.bmp",5
20,4,37,1,0,0,1,379,"e","left","00le.bmp",4
20,4,38,1,0,0,1,369,"d","left","00ld.bmp",3
22,1,1,2,0,0,1,774,"b","right","00rb.bmp",6
22,1,5,2,0,0,1,669,"d","right","00rd.bmp",8
22,1,7,2,0,0,1,844,"f","right","00rf.bmp",10
22,1,9,2,0,0,1,1194,"e","right","00re.bmp",9
22,1,13,2,0,0,1,658,"c","right","00rc.bmp",7
22,1,18,1,0,0,1,902,"e","left","00le.bmp",4
22,1,21,1,0,0,1,586,"b","left","00lb.bmp",1
22,1,24,1,0,0,1,655,"f","left","00lf.bmp",5
22,1,37,1,0,0,1,509,"c","left","00lc.bmp",2
22,1,39,1,0,0,1,479,"d","left","00ld.bmp",3
22,2,1,1,0,0,1,572,"b","left","00lb.bmp",1
22,2,2,2,0,0,1,441,"f","right","00rf.bmp",10
22,2,9,1,0,0,1,528,"c","left","00lc.bmp",2
22,2,11,2,0,0,1,488,"d","right","00rd.bmp",8
22,2,14,1,0,0,1,543,"f","left","00lf.bmp",5
22,2,15,2,0,0,1,378,"c","right","00rc.bmp",7
22,2,22,2,0,0,1,612,"e","right","00re.bmp",9
22,2,24,1,0,0,1,410,"d","left","00ld.bmp",3
22,2,37,1,0,0,1,759,"e","left","00le.bmp",4
22,2,40,2,0,0,1,434,"b","right","00rb.bmp",6
22,3,1,1,0,0,1,564,"f","left","00lf.bmp",5
22,3,5,2,0,0,1,426,"b","right","00rb.bmp",6
22,3,9,2,0,0,1,511,"d","right","00rd.bmp",8
22,3,11,2,0,0,1,474,"e","right","00re.bmp",9
22,3,14,1,0,0,1,623,"e","left","00le.bmp",4
22,3,19,1,0,0,1,438,"c","left","00lc.bmp",2
22,3,31,1,0,0,1,424,"b","left","00lb.bmp",1
22,3,33,2,0,0,1,495,"c","right","00rc.bmp",7
22,3,38,2,0,0,1,553,"f","right","00rf.bmp",10
22,3,39,1,0,0,1,452,"d","left","00ld.bmp",3
22,4,3,2,0,0,1,561,"d","right","00rd.bmp",8
22,4,5,2,0,0,1,413,"f","right","00rf.bmp",10
22,4,9,2,0,0,1,415,"c","right","00rc.bmp",7
22,4,14,2,0,0,1,440,"b","right","00rb.bmp",6
22,4,17,1,0,0,1,546,"d","left","00ld.bmp",3
22,4,18,1,0,0,1,472,"b","left","00lb.bmp",1
22,4,19,1,0,0,1,410,"f","left","00lf.bmp",5
22,4,22,2,0,0,1,413,"e","right","00re.bmp",9
22,4,25,1,0,0,1,417,"c","left","00lc.bmp",2
22,4,32,1,0,0,1,594,"e","left","00le.bmp",4
26,1,1,2,0,0,1,577,"f","right","00rf.bmp",10
26,1,2,2,0,0,1,620,"b","right","00rb.bmp",6
26,1,6,2,0,0,1,606,"e","right","00re.bmp",9
26,1,7,2,0,0,1,588,"c","right","00rc.bmp",7
26,1,9,1,0,0,1,551,"d","left","00ld.bmp",3
26,1,19,1,0,0,1,613,"c","left","00lc.bmp",2
26,1,27,2,0,0,1,532,"d","right","00rd.bmp",8
26,1,32,1,0,0,1,502,"e","left","00le.bmp",4
26,1,36,1,0,0,1,559,"f","left","00lf.bmp",5
26,1,40,1,0,0,1,502,"b","left","00lb.bmp",1
26,2,3,2,0,0,1,593,"e","right","00re.bmp",9
26,2,8,1,0,0,1,435,"e","left","00le.bmp",4
26,2,9,2,0,0,1,507,"b","right","00rb.bmp",6
26,2,14,2,0,0,1,545,"d","right","00rd.bmp",8
26,2,17,2,0,0,1,467,"c","right","00rc.bmp",7
26,2,22,1,0,0,1,551,"d","left","00ld.bmp",3
26,2,23,2,0,0,1,581,"f","right","00rf.bmp",10
26,2,27,1,0,0,1,467,"c","left","00lc.bmp",2
26,2,37,1,0,0,1,397,"b","left","00lb.bmp",1
26,2,39,1,0,0,1,430,"f","left","00lf.bmp",5
26,3,6,1,0,0,1,475,"b","left","00lb.bmp",1
26,3,9,1,0,0,1,401,"d","left","00ld.bmp",3
26,3,12,2,0,0,1,490,"f","right","00rf.bmp",10
26,3,16,2,0,0,1,708,"e","right","00re.bmp",9
26,3,17,1,0,0,1,550,"f","left","00lf.bmp",5
26,3,19,1,0,0,1,434,"c","left","00lc.bmp",2
26,3,23,1,0,0,1,464,"e","left","00le.bmp",4
26,3,30,2,0,0,1,533,"c","right","00rc.bmp",7
26,3,32,2,0,0,1,376,"b","right","00rb.bmp",6
26,3,33,2,0,0,1,411,"d","right","00rd.bmp",8
26,4,1,2,0,0,1,416,"c","right","00rc.bmp",7
26,4,4,1,0,0,1,422,"c","left","00lc.bmp",2
26,4,9,2,0,0,1,469,"d","right","00rd.bmp",8
26,4,11,1,0,0,1,426,"e","left","00le.bmp",4
26,4,14,2,0,0,1,496,"e","right","00re.bmp",9
26,4,16,1,0,0,1,424,"b","left","00lb.bmp",1
26,4,17,1,0,0,1,396,"d","left","00ld.bmp",3
26,4,35,2,0,0,1,490,"b","right","00rb.bmp",6
26,4,38,1,0,0,1,537,"f","left","00lf.bmp",5
26,4,39,2,0,0,1,444,"f","right","00rf.bmp",10
6,1,9,2,0,0,1,669,"d","right","00rd.bmp",8
6,1,10,2,0,0,1,684,"b","right","00rb.bmp",6
6,1,12,2,0,0,1,604,"e","right","00re.bmp",9
6,1,14,1,0,0,1,555,"d","left","00ld.bmp",3
6,1,17,2,0,0,1,603,"f","right","00rf.bmp",10
6,1,21,1,0,0,1,455,"b","left","00lb.bmp",1
6,1,22,2,0,0,1,471,"c","right","00rc.bmp",7
6,1,33,1,0,0,1,823,"f","left","00lf.bmp",5
6,1,37,1,0,0,1,575,"c","left","00lc.bmp",2
6,1,40,1,0,0,1,897,"e","left","00le.bmp",4
6,2,5,2,0,0,1,478,"b","right","00rb.bmp",6
6,2,8,2,0,0,1,597,"d","right","00rd.bmp",8
6,2,14,1,0,0,1,543,"f","left","00lf.bmp",5
6,2,15,1,0,0,1,461,"e","left","00le.bmp",4
6,2,16,2,0,0,1,548,"f","right","00rf.bmp",10
6,2,18,1,0,0,1,447,"c","left","00lc.bmp",2
6,2,20,1,0,0,1,486,"d","left","00ld.bmp",3
6,2,21,2,0,0,1,421,"e","right","00re.bmp",9
6,2,29,2,0,0,1,539,"c","right","00rc.bmp",7
6,2,38,1,0,0,1,423,"b","left","00lb.bmp",1
6,3,3,2,0,0,1,602,"e","right","00re.bmp",9
6,3,5,1,0,0,1,427,"e","left","00le.bmp",4
6,3,7,1,0,0,1,582,"d","left","00ld.bmp",3
6,3,10,2,0,0,1,455,"b","right","00rb.bmp",6
6,3,21,1,0,0,1,513,"f","left","00lf.bmp",5
6,3,25,2,0,0,1,615,"f","right","00rf.bmp",10
6,3,29,1,0,0,1,473,"c","left","00lc.bmp",2
6,3,34,2,0,0,1,526,"c","right","00rc.bmp",7
6,3,39,1,0,0,1,513,"b","left","00lb.bmp",1
6,3,40,2,0,0,1,417,"d","right","00rd.bmp",8
6,4,4,2,0,0,1,442,"d","right","00rd.bmp",8
6,4,7,2,0,0,1,473,"f","right","00rf.bmp",10
6,4,21,1,0,0,1,382,"f","left","00lf.bmp",5
6,4,22,2,0,0,1,470,"e","right","00re.bmp",9
6,4,24,1,0,0,1,434,"c","left","00lc.bmp",2
6,4,26,1,0,0,1,422,"e","left","00le.bmp",4
6,4,27,1,0,0,1,426,"b","left","00lb.bmp",1
6,4,33,2,0,0,1,404,"c","right","00rc.bmp",7
6,4,34,2,0,0,1,436,"b","right","00rb.bmp",6
6,4,37,1,0,0,1,423,"d","left","00ld.bmp",3
8,1,1,2,0,0,1,590,"f","right","00rf.bmp",10
8,1,4,2,0,0,1,417,"d","right","00rd.bmp",8
8,1,9,2,0,0,1,570,"b","right","00rb.bmp",6
8,1,10,2,0,0,1,673,"e","right","00re.bmp",9
8,1,15,1,0,0,1,599,"c","left","00lc.bmp",2
8,1,21,1,0,0,1,786,"e","left","00le.bmp",4
8,1,22,2,0,0,1,472,"c","right","00rc.bmp",7
8,1,24,1,0,0,1,447,"b","left","00lb.bmp",1
8,1,34,1,0,0,1,486,"f","left","00lf.bmp",5
8,1,39,1,0,0,1,453,"d","left","00ld.bmp",3
8,2,4,1,0,0,1,670,"e","left","00le.bmp",4
8,2,7,1,0,0,1,464,"c","left","00lc.bmp",2
8,2,13,2,0,0,1,403,"d","right","00rd.bmp",8
8,2,15,2,0,0,1,396,"b","right","00rb.bmp",6
8,2,19,2,0,0,1,408,"f","right","00rf.bmp",10
8,2,20,2,0,0,1,507,"e","right","00re.bmp",9
8,2,27,2,0,0,1,454,"c","right","00rc.bmp",7
8,2,28,1,0,0,1,452,"f","left","00lf.bmp",5
8,2,32,1,0,0,1,577,"d","left","00ld.bmp",3
8,2,40,1,0,0,1,471,"b","left","00lb.bmp",1
8,3,10,2,0,0,1,443,"c","right","00rc.bmp",7
8,3,12,1,0,0,1,416,"d","left","00ld.bmp",3
8,3,13,1,0,0,1,403,"e","left","00le.bmp",4
8,3,14,2,0,0,1,419,"d","right","00rd.bmp",8
8,3,27,1,0,0,1,408,"f","left","00lf.bmp",5
8,3,32,2,0,0,1,471,"b","right","00rb.bmp",6
8,3,37,2,0,0,1,489,"e","right","00re.bmp",9
8,3,38,1,0,0,1,459,"b","left","00lb.bmp",1
8,3,39,2,0,0,1,466,"f","right","00rf.bmp",10
8,3,40,1,0,0,1,437,"c","left","00lc.bmp",2
8,4,1,2,0,0,1,551,"e","right","00re.bmp",9
8,4,15,1,0,0,1,421,"c","left","00lc.bmp",2
8,4,18,2,0,0,1,432,"b","right","00rb.bmp",6
8,4,21,2,0,0,1,419,"c","right","00rc.bmp",7
8,4,24,1,0,0,1,462,"b","left","00lb.bmp",1
8,4,25,1,0,0,1,457,"d","left","00ld.bmp",3
8,4,29,1,0,0,1,477,"f","left","00lf.bmp",5
8,4,34,2,0,0,1,410,"d","right","00rd.bmp",8
8,4,37,1,0,0,1,445,"e","left","00le.bmp",4
8,4,38,2,0,0,1,410,"f","right","00rf.bmp",10
9,1,3,1,0,0,1,437,"c","left","00lc.bmp",2
9,1,8,2,0,0,1,473,"c","right","00rc.bmp",7
9,1,15,1,0,0,1,414,"d","left","00ld.bmp",3
9,1,19,2,0,0,1,503,"d","right","00rd.bmp",8
9,1,26,1,0,0,1,343,"b","left","00lb.bmp",1
9,1,27,2,0,0,1,495,"f","right","00rf.bmp",10
9,1,31,1,0,0,1,542,"e","left","00le.bmp",4
9,1,32,2,0,0,1,435,"e","right","00re.bmp",9
9,1,34,2,0,0,1,413,"b","right","00rb.bmp",6
9,1,38,1,0,0,1,485,"f","left","00lf.bmp",5
9,2,3,1,0,0,1,429,"c","left","00lc.bmp",2
9,2,4,1,0,0,1,548,"e","left","00le.bmp",4
9,2,8,2,0,0,1,465,"e","right","00re.bmp",9
9,2,15,1,0,0,1,427,"b","left","00lb.bmp",1
9,2,16,2,0,0,1,370,"b","right","00rb.bmp",6
9,2,17,1,0,0,1,474,"d","left","00ld.bmp",3
9,2,20,2,0,0,1,369,"c","right","00rc.bmp",7
9,2,28,1,0,0,1,411,"f","left","00lf.bmp",5
9,2,29,2,0,0,1,436,"f","right","00rf.bmp",10
9,2,36,2,0,0,1,552,"d","right","00rd.bmp",8
9,3,11,1,0,0,1,508,"b","left","00lb.bmp",1
9,3,16,1,0,0,1,411,"c","left","00lc.bmp",2
9,3,20,1,0,0,1,360,"d","left","00ld.bmp",3
9,3,22,2,0,0,1,402,"b","right","00rb.bmp",6
9,3,27,1,0,0,1,447,"e","left","00le.bmp",4
9,3,28,2,0,0,1,528,"e","right","00re.bmp",9
9,3,29,2,0,0,1,454,"d","right","00rd.bmp",8
9,3,34,2,0,0,1,398,"c","right","00rc.bmp",7
9,3,38,2,0,0,1,362,"f","right","00rf.bmp",10
9,3,39,1,0,0,1,391,"f","left","00lf.bmp",5
9,4,3,1,0,0,1,458,"c","left","00lc.bmp",2
9,4,5,1,0,0,1,473,"d","left","00ld.bmp",3
9,4,10,2,0,0,1,459,"d","right","00rd.bmp",8
9,4,14,1,0,0,1,374,"f","left","00lf.bmp",5
9,4,18,1,0,0,1,367,"e","left","00le.bmp",4
9,4,19,1,0,0,1,364,"b","left","00lb.bmp",1
9,4,21,2,0,0,1,463,"e","right","00re.bmp",9
9,4,32,2,0,0,1,469,"f","right","00rf.bmp",10
9,4,33,2,0,0,1,385,"c","right","00rc.bmp",7
9,4,34,2,0,0,1,327,"b","right","00rb.bmp",6
10,1,2,1,0,1,1,586,"b","left","01lb.bmp",11
10,1,4,2,0,1,1,880,"d","right","01rd.bmp",18
10,1,7,1,0,1,1,1013,"d","left","01ld.bmp",13
10,1,11,2,0,1,1,725,"b","right","01rb.bmp",16
10,1,13,2,0,1,1,1135,"e","right","01re.bmp",19
10,1,24,1,0,1,1,702,"f","left","01lf.bmp",15
10,1,28,2,0,1,1,591,"c","right","01rc.bmp",17
10,1,30,1,0,1,1,593,"c","left","01lc.bmp",12
10,1,32,2,0,1,1,833,"f","right","01rf.bmp",20
10,1,34,1,0,1,1,644,"e","left","01le.bmp",14
10,2,2,1,0,1,1,478,"f","left","01lf.bmp",15
10,2,7,2,0,1,1,545,"e","right","01re.bmp",19
10,2,10,1,0,1,1,615,"e","left","01le.bmp",14
10,2,12,1,0,1,1,558,"d","left","01ld.bmp",13
10,2,14,2,0,1,1,494,"b","right","01rb.bmp",16
10,2,17,1,0,1,1,429,"b","left","01lb.bmp",11
10,2,19,2,0,1,1,525,"c","right","01rc.bmp",17
10,2,22,1,0,1,1,522,"c","left","01lc.bmp",12
10,2,33,2,0,1,1,505,"f","right","01rf.bmp",20
10,2,37,2,0,1,1,539,"d","right","01rd.bmp",18
10,3,5,2,0,1,1,652,"e","right","01re.bmp",19
10,3,7,1,0,1,1,528,"c","left","01lc.bmp",12
10,3,10,1,0,1,1,622,"e","left","01le.bmp",14
10,3,11,2,0,1,1,520,"f","right","01rf.bmp",20
10,3,14,2,0,1,1,480,"c","right","01rc.bmp",17
10,3,16,1,0,1,1,421,"f","left","01lf.bmp",15
10,3,18,1,0,1,1,372,"b","left","01lb.bmp",11
10,3,21,2,0,1,1,562,"b","right","01rb.bmp",16
10,3,23,2,0,1,1,634,"d","right","01rd.bmp",18
10,3,28,1,0,1,1,578,"d","left","01ld.bmp",13
10,4,7,1,0,1,1,446,"b","left","01lb.bmp",11
10,4,10,1,0,1,1,478,"c","left","01lc.bmp",12
10,4,14,2,0,1,1,447,"c","right","01rc.bmp",17
10,4,17,1,0,1,1,610,"d","left","01ld.bmp",13
10,4,21,2,0,1,1,677,"d","right","01rd.bmp",18
10,4,32,2,0,1,1,445,"e","right","01re.bmp",19
10,4,34,2,0,1,1,387,"b","right","01rb.bmp",16
10,4,35,1,0,1,1,425,"e","left","01le.bmp",14
10,4,36,1,0,1,1,459,"f","left","01lf.bmp",15
10,4,37,2,0,1,1,397,"f","right","01rf.bmp",20
12,1,1,1,0,1,1,867,"c","left","01lc.bmp",12
12,1,7,1,0,1,1,686,"f","left","01lf.bmp",15
12,1,9,2,0,1,1,813,"d","right","01rd.bmp",18
12,1,15,1,0,1,1,653,"e","left","01le.bmp",14
12,1,16,2,0,1,1,594,"f","right","01rf.bmp",20
12,1,17,2,0,1,1,611,"c","right","01rc.bmp",17
12,1,20,2,0,1,1,539,"b","right","01rb.bmp",16
12,1,23,2,0,1,1,609,"e","right","01re.bmp",19
12,1,31,1,0,1,1,747,"d","left","01ld.bmp",13
12,1,38,1,0,1,1,695,"b","left","01lb.bmp",11
12,2,4,1,0,1,1,394,"c","left","01lc.bmp",12
12,2,13,1,0,1,1,617,"d","left","01ld.bmp",13
12,2,14,2,0,1,1,497,"e","right","01re.bmp",19
12,2,17,2,0,1,1,637,"f","right","01rf.bmp",20
12,2,18,1,0,1,1,711,"e","left","01le.bmp",14
12,2,19,2,0,1,1,504,"c","right","01rc.bmp",17
12,2,25,2,0,1,1,577,"d","right","01rd.bmp",18
12,2,26,1,0,1,1,516,"f","left","01lf.bmp",15
12,2,36,1,0,1,1,502,"b","left","01lb.bmp",11
12,2,39,2,0,1,1,495,"b","right","01rb.bmp",16
12,3,2,2,0,1,1,583,"f","right","01rf.bmp",20
12,3,4,1,0,1,1,587,"c","left","01lc.bmp",12
12,3,6,2,0,1,1,540,"d","right","01rd.bmp",18
12,3,13,1,0,1,1,701,"e","left","01le.bmp",14
12,3,14,2,0,1,1,415,"e","right","01re.bmp",19
12,3,20,1,0,1,1,478,"b","left","01lb.bmp",11
12,3,21,2,0,1,1,535,"b","right","01rb.bmp",16
12,3,25,1,0,1,1,592,"f","left","01lf.bmp",15
12,3,37,2,0,1,1,710,"c","right","01rc.bmp",17
12,3,39,1,0,1,1,616,"d","left","01ld.bmp",13
12,4,1,2,0,1,1,574,"d","right","01rd.bmp",18
12,4,2,1,0,1,1,554,"e","left","01le.bmp",14
12,4,19,1,0,1,1,578,"c","left","01lc.bmp",12
12,4,20,2,0,1,1,385,"e","right","01re.bmp",19
12,4,24,1,0,1,1,516,"d","left","01ld.bmp",13
12,4,26,2,0,1,1,601,"f","right","01rf.bmp",20
12,4,27,2,0,1,1,467,"c","right","01rc.bmp",17
12,4,36,1,0,1,1,485,"f","left","01lf.bmp",15
12,4,38,1,0,1,1,388,"b","left","01lb.bmp",11
12,4,40,2,0,1,1,440,"b","right","01rb.bmp",16
13,1,16,2,0,1,1,588,"d","right","01rd.bmp",18
13,1,22,2,0,1,1,636,"c","right","01rc.bmp",17
13,1,25,2,0,1,1,482,"e","right","01re.bmp",19
13,1,26,1,0,1,1,512,"f","left","01lf.bmp",15
13,1,27,2,0,1,1,463,"b","right","01rb.bmp",16
13,1,28,1,0,1,1,522,"e","left","01le.bmp",14
13,1,30,1,0,1,1,562,"d","left","01ld.bmp",13
13,1,34,1,0,1,1,454,"c","left","01lc.bmp",12
13,1,39,2,0,1,1,501,"f","right","01rf.bmp",20
13,1,40,1,0,1,1,431,"b","left","01lb.bmp",11
13,2,1,2,0,1,1,487,"b","right","01rb.bmp",16
13,2,4,1,0,1,1,411,"f","left","01lf.bmp",15
13,2,6,1,0,1,1,357,"b","left","01lb.bmp",11
13,2,7,1,0,1,1,397,"e","left","01le.bmp",14
13,2,15,2,0,1,1,530,"d","right","01rd.bmp",18
13,2,19,1,0,1,1,530,"c","left","01lc.bmp",12
13,2,28,1,0,1,1,492,"d","left","01ld.bmp",13
13,2,29,2,0,1,1,541,"e","right","01re.bmp",19
13,2,33,2,0,1,1,407,"c","right","01rc.bmp",17
13,2,40,2,0,1,1,392,"f","right","01rf.bmp",20
13,3,2,1,0,1,1,507,"c","left","01lc.bmp",12
13,3,3,1,0,1,1,489,"d","left","01ld.bmp",13
13,3,4,2,0,1,1,518,"b","right","01rb.bmp",16
13,3,14,1,0,1,1,573,"e","left","01le.bmp",14
13,3,18,1,0,1,1,462,"f","left","01lf.bmp",15
13,3,19,2,0,1,1,442,"c","right","01rc.bmp",17
13,3,20,1,0,1,1,385,"b","left","01lb.bmp",11
13,3,22,2,0,1,1,505,"e","right","01re.bmp",19
13,3,26,2,0,1,1,573,"f","right","01rf.bmp",20
13,3,27,2,0,1,1,568,"d","right","01rd.bmp",18
13,4,2,2,0,1,1,493,"d","right","01rd.bmp",18
13,4,7,1,0,1,1,348,"b","left","01lb.bmp",11
13,4,17,2,0,1,1,487,"c","right","01rc.bmp",17
13,4,18,1,0,1,1,747,"d","left","01ld.bmp",13
13,4,20,1,0,1,1,508,"e","left","01le.bmp",14
13,4,22,1,0,1,1,363,"f","left","01lf.bmp",15
13,4,26,2,0,1,1,464,"e","right","01re.bmp",19
13,4,30,1,0,1,1,461,"c","left","01lc.bmp",12
13,4,33,2,0,1,1,408,"f","right","01rf.bmp",20
13,4,37,2,0,1,1,348,"b","right","01rb.bmp",16
14,1,3,2,0,1,1,592,"c","right","01rc.bmp",17
14,1,7,2,0,1,1,805,"e","right","01re.bmp",19
14,1,15,1,0,1,1,612,"e","left","01le.bmp",14
14,1,18,2,0,1,1,593,"d","right","01rd.bmp",18
14,1,22,1,0,1,1,490,"b","left","01lb.bmp",11
14,1,27,2,0,1,1,572,"f","right","01rf.bmp",20
14,1,30,1,0,1,1,608,"d","left","01ld.bmp",13
14,1,32,1,0,1,1,531,"f","left","01lf.bmp",15
14,1,35,1,0,1,1,583,"c","left","01lc.bmp",12
14,1,37,2,0,1,1,535,"b","right","01rb.bmp",16
14,2,10,1,0,1,1,347,"f","left","01lf.bmp",15
14,2,13,1,0,1,1,439,"b","left","01lb.bmp",11
14,2,15,2,0,1,1,494,"e","right","01re.bmp",19
14,2,20,1,0,1,1,549,"e","left","01le.bmp",14
14,2,24,2,0,1,1,400,"c","right","01rc.bmp",17
14,2,25,1,0,1,1,340,"d","left","01ld.bmp",13
14,2,26,2,0,1,1,467,"b","right","01rb.bmp",16
14,2,33,2,0,1,1,392,"f","right","01rf.bmp",20
14,2,37,1,0,1,1,393,"c","left","01lc.bmp",12
14,2,38,2,0,1,1,534,"d","right","01rd.bmp",18
14,3,1,1,0,1,1,509,"f","left","01lf.bmp",15
14,3,2,1,0,1,1,402,"e","left","01le.bmp",14
14,3,5,2,0,1,1,379,"c","right","01rc.bmp",17
14,3,7,1,0,1,1,408,"b","left","01lb.bmp",11
14,3,23,2,0,1,1,573,"d","right","01rd.bmp",18
14,3,27,2,0,1,1,555,"f","right","01rf.bmp",20
14,3,31,1,0,1,1,488,"c","left","01lc.bmp",12
14,3,32,1,0,1,1,545,"d","left","01ld.bmp",13
14,3,37,2,0,1,1,532,"e","right","01re.bmp",19
14,3,38,2,0,1,1,505,"b","right","01rb.bmp",16
14,4,2,2,0,1,1,390,"f","right","01rf.bmp",20
14,4,5,2,0,1,1,477,"e","right","01re.bmp",19
14,4,7,1,0,1,1,400,"c","left","01lc.bmp",12
14,4,13,2,0,1,1,525,"c","right","01rc.bmp",17
14,4,15,2,0,1,1,417,"b","right","01rb.bmp",16
14,4,16,1,0,1,1,508,"d","left","01ld.bmp",13
14,4,20,1,0,1,1,443,"f","left","01lf.bmp",15
14,4,24,1,0,1,1,408,"e","left","01le.bmp",14
14,4,37,1,0,1,1,491,"b","left","01lb.bmp",11
14,4,38,2,0,1,1,910,"d","right","01rd.bmp",18
15,1,10,2,0,1,1,536,"c","right","01rc.bmp",17
15,1,14,2,0,1,1,570,"f","right","01rf.bmp",20
15,1,16,2,0,1,1,552,"b","right","01rb.bmp",16
15,1,17,1,0,1,1,651,"c","left","01lc.bmp",12
15,1,28,2,0,1,1,594,"e","right","01re.bmp",19
15,1,30,1,0,1,1,632,"d","left","01ld.bmp",13
15,1,33,1,0,1,1,561,"f","left","01lf.bmp",15
15,1,34,1,0,1,1,444,"b","left","01lb.bmp",11
15,1,36,2,0,1,1,691,"d","right","01rd.bmp",18
15,1,40,1,0,1,1,515,"e","left","01le.bmp",14
15,2,1,1,0,1,1,571,"d","left","01ld.bmp",13
15,2,2,1,0,1,1,403,"c","left","01lc.bmp",12
15,2,14,2,0,1,1,537,"c","right","01rc.bmp",17
15,2,18,1,0,1,1,468,"b","left","01lb.bmp",11
15,2,25,2,0,1,1,519,"d","right","01rd.bmp",18
15,2,28,1,0,1,1,644,"f","left","01lf.bmp",15
15,2,30,2,0,1,1,488,"b","right","01rb.bmp",16
15,2,33,2,0,1,1,495,"e","right","01re.bmp",19
15,2,35,2,0,1,1,440,"f","right","01rf.bmp",20
15,2,39,1,0,1,1,674,"e","left","01le.bmp",14
15,3,2,2,0,1,1,522,"e","right","01re.bmp",19
15,3,7,2,0,1,1,388,"c","right","01rc.bmp",17
15,3,10,1,0,1,1,574,"f","left","01lf.bmp",15
15,3,11,1,0,1,1,484,"e","left","01le.bmp",14
15,3,23,2,0,1,1,645,"d","right","01rd.bmp",18
15,3,31,2,0,1,1,390,"f","right","01rf.bmp",20
15,3,32,1,0,1,0,373,"c","left","01lc.bmp",12
15,3,36,2,0,1,1,490,"b","right","01rb.bmp",16
15,3,37,1,0,1,1,582,"d","left","01ld.bmp",13
15,3,39,1,0,1,1,511,"b","left","01lb.bmp",11
15,4,2,2,0,1,1,484,"d","right","01rd.bmp",18
15,4,3,2,0,1,1,394,"f","right","01rf.bmp",20
15,4,8,1,0,1,1,601,"e","left","01le.bmp",14
15,4,10,1,0,1,1,479,"f","left","01lf.bmp",15
15,4,14,2,0,1,1,425,"e","right","01re.bmp",19
15,4,16,1,0,1,1,483,"c","left","01lc.bmp",12
15,4,22,1,0,1,1,451,"b","left","01lb.bmp",11
15,4,27,2,0,1,1,386,"b","right","01rb.bmp",16
15,4,31,1,0,1,1,575,"d","left","01ld.bmp",13
15,4,35,2,0,1,1,442,"c","right","01rc.bmp",17
18,1,8,1,0,1,1,699,"d","left","01ld.bmp",13
18,1,11,1,0,1,1,747,"c","left","01lc.bmp",12
18,1,12,2,0,1,1,709,"f","right","01rf.bmp",20
18,1,16,1,0,1,1,792,"e","left","01le.bmp",14
18,1,18,1,0,1,1,529,"f","left","01lf.bmp",15
18,1,20,2,0,1,1,887,"d","right","01rd.bmp",18
18,1,23,2,0,1,1,601,"b","right","01rb.bmp",16
18,1,34,2,0,1,1,583,"e","right","01re.bmp",19
18,1,36,2,0,1,1,579,"c","right","01rc.bmp",17
18,1,39,1,0,1,1,533,"b","left","01lb.bmp",11
18,2,1,1,0,1,1,594,"f","left","01lf.bmp",15
18,2,2,1,0,1,1,330,"b","left","01lb.bmp",11
18,2,5,1,0,1,1,408,"c","left","01lc.bmp",12
18,2,7,2,0,1,1,496,"c","right","01rc.bmp",17
18,2,8,2,0,1,1,628,"d","right","01rd.bmp",18
18,2,14,1,0,1,1,941,"e","left","01le.bmp",14
18,2,22,2,0,1,1,715,"f","right","01rf.bmp",20
18,2,26,1,0,1,1,778,"d","left","01ld.bmp",13
18,2,29,2,0,1,1,575,"e","right","01re.bmp",19
18,2,36,2,0,1,1,435,"b","right","01rb.bmp",16
18,3,7,2,0,1,1,627,"d","right","01rd.bmp",18
18,3,11,1,0,1,1,631,"d","left","01ld.bmp",13
18,3,16,1,0,1,1,524,"b","left","01lb.bmp",11
18,3,19,2,0,1,1,746,"f","right","01rf.bmp",20
18,3,23,2,0,1,1,645,"c","right","01rc.bmp",17
18,3,27,1,0,1,1,615,"c","left","01lc.bmp",12
18,3,29,2,0,1,1,1196,"e","right","01re.bmp",19
18,3,31,2,0,1,1,396,"b","right","01rb.bmp",16
18,3,36,1,0,1,1,746,"f","left","01lf.bmp",15
18,3,38,1,0,1,1,595,"e","left","01le.bmp",14
18,4,5,2,0,1,1,575,"b","right","01rb.bmp",16
18,4,9,1,0,1,1,978,"d","left","01ld.bmp",13
18,4,13,1,0,1,1,582,"c","left","01lc.bmp",12
18,4,14,2,0,1,1,742,"d","right","01rd.bmp",18
18,4,16,1,0,1,1,689,"e","left","01le.bmp",14
18,4,17,2,0,1,1,847,"e","right","01re.bmp",19
18,4,18,1,0,1,1,617,"b","left","01lb.bmp",11
18,4,29,2,0,1,1,675,"f","right","01rf.bmp",20
18,4,37,1,0,1,1,510,"f","left","01lf.bmp",15
18,4,38,2,0,1,1,603,"c","right","01rc.bmp",17
20,1,2,1,0,1,1,508,"c","left","01lc.bmp",12
20,1,5,2,0,1,1,535,"d","right","01rd.bmp",18
20,1,18,2,0,1,1,458,"e","right","01re.bmp",19
20,1,20,1,0,1,1,749,"d","left","01ld.bmp",13
20,1,24,1,0,1,1,460,"f","left","01lf.bmp",15
20,1,26,2,0,1,1,414,"c","right","01rc.bmp",17
20,1,28,1,0,1,1,507,"b","left","01lb.bmp",11
20,1,30,2,0,1,1,481,"b","right","01rb.bmp",16
20,1,32,2,0,1,1,440,"f","right","01rf.bmp",20
20,1,35,1,0,1,0,635,"e","left","01le.bmp",14
20,2,10,2,0,1,1,501,"e","right","01re.bmp",19
20,2,11,1,0,1,1,605,"d","left","01ld.bmp",13
20,2,16,2,0,1,1,538,"c","right","01rc.bmp",17
20,2,17,2,0,1,1,716,"d","right","01rd.bmp",18
20,2,23,1,0,1,1,613,"e","left","01le.bmp",14
20,2,24,2,0,1,1,438,"b","right","01rb.bmp",16
20,2,31,1,0,1,1,482,"c","left","01lc.bmp",12
20,2,34,1,0,1,1,559,"f","left","01lf.bmp",15
20,2,39,2,0,1,1,479,"f","right","01rf.bmp",20
20,2,40,1,0,1,1,506,"b","left","01lb.bmp",11
20,3,3,2,0,1,1,434,"b","right","01rb.bmp",16
20,3,6,2,0,1,1,526,"e","right","01re.bmp",19
20,3,15,1,0,1,1,417,"b","left","01lb.bmp",11
20,3,18,1,0,1,1,429,"c","left","01lc.bmp",12
20,3,19,1,0,1,1,497,"d","left","01ld.bmp",13
20,3,27,2,0,1,1,557,"d","right","01rd.bmp",18
20,3,31,1,0,1,1,507,"e","left","01le.bmp",14
20,3,32,1,0,1,1,512,"f","left","01lf.bmp",15
20,3,35,2,0,1,1,440,"f","right","01rf.bmp",20
20,3,36,2,0,1,1,459,"c","right","01rc.bmp",17
20,4,5,1,0,1,1,489,"e","left","01le.bmp",14
20,4,7,2,0,1,1,467,"b","right","01rb.bmp",16
20,4,9,2,0,1,1,520,"f","right","01rf.bmp",20
20,4,17,2,0,1,1,419,"d","right","01rd.bmp",18
20,4,21,2,0,1,1,398,"c","right","01rc.bmp",17
20,4,28,1,0,1,1,482,"b","left","01lb.bmp",11
20,4,30,1,0,1,1,409,"c","left","01lc.bmp",12
20,4,31,1,0,1,1,446,"d","left","01ld.bmp",13
20,4,35,1,0,1,1,592,"f","left","01lf.bmp",15
20,4,40,2,0,1,1,439,"e","right","01re.bmp",19
22,1,2,1,0,1,1,1244,"d","left","01ld.bmp",13
22,1,10,2,0,1,1,1103,"d","right","01rd.bmp",18
22,1,15,1,0,1,1,898,"f","left","01lf.bmp",15
22,1,16,1,0,1,1,604,"b","left","01lb.bmp",11
22,1,19,2,0,1,1,769,"b","right","01rb.bmp",16
22,1,22,2,0,1,1,656,"c","right","01rc.bmp",17
22,1,33,2,0,1,1,923,"e","right","01re.bmp",19
22,1,34,2,0,1,1,877,"f","right","01rf.bmp",20
22,1,36,1,0,1,1,643,"e","left","01le.bmp",14
22,1,40,1,0,1,1,476,"c","left","01lc.bmp",12
22,2,5,2,0,1,1,627,"e","right","01re.bmp",19
22,2,7,2,0,1,1,467,"c","right","01rc.bmp",17
22,2,8,2,0,1,1,660,"f","right","01rf.bmp",20
22,2,16,1,0,1,1,543,"d","left","01ld.bmp",13
22,2,17,1,0,1,1,491,"c","left","01lc.bmp",12
22,2,19,1,0,1,1,439,"f","left","01lf.bmp",15
22,2,23,2,0,1,1,539,"b","right","01rb.bmp",16
22,2,32,1,0,1,1,561,"e","left","01le.bmp",14
22,2,33,2,0,1,1,544,"d","right","01rd.bmp",18
22,2,39,1,0,1,1,473,"b","left","01lb.bmp",11
22,3,4,1,0,1,1,552,"e","left","01le.bmp",14
22,3,6,1,0,1,1,436,"c","left","01lc.bmp",12
22,3,7,1,0,1,1,469,"b","left","01lb.bmp",11
22,3,8,2,0,1,1,504,"c","right","01rc.bmp",17
22,3,12,2,0,1,1,559,"d","right","01rd.bmp",18
22,3,22,2,0,1,1,1062,"e","right","01re.bmp",19
22,3,26,1,0,1,1,581,"f","left","01lf.bmp",15
22,3,30,1,0,1,1,658,"d","left","01ld.bmp",13
22,3,34,2,0,1,1,467,"f","right","01rf.bmp",20
22,3,40,2,0,1,1,426,"b","right","01rb.bmp",16
22,4,4,1,0,1,1,444,"c","left","01lc.bmp",12
22,4,7,1,0,1,1,496,"f","left","01lf.bmp",15
22,4,13,1,0,1,1,573,"e","left","01le.bmp",14
22,4,20,2,0,1,1,588,"d","right","01rd.bmp",18
22,4,26,2,0,1,1,418,"b","right","01rb.bmp",16
22,4,28,1,0,1,1,464,"b","left","01lb.bmp",11
22,4,30,2,0,1,1,440,"e","right","01re.bmp",19
22,4,35,2,0,1,1,596,"f","right","01rf.bmp",20
22,4,36,1,0,1,1,470,"d","left","01ld.bmp",13
22,4,37,2,0,1,1,412,"c","right","01rc.bmp",17
26,1,3,2,0,1,1,523,"b","right","01rb.bmp",16
26,1,11,1,0,1,1,528,"c","left","01lc.bmp",12
26,1,12,2,0,1,1,496,"d","right","01rd.bmp",18
26,1,16,2,0,1,1,583,"f","right","01rf.bmp",20
26,1,22,1,0,1,1,503,"b","left","01lb.bmp",11
26,1,23,1,0,1,1,587,"f","left","01lf.bmp",15
26,1,25,2,0,1,1,592,"c","right","01rc.bmp",17
26,1,29,1,0,1,1,600,"d","left","01ld.bmp",13
26,1,35,2,0,1,1,724,"e","right","01re.bmp",19
26,1,37,1,0,1,1,577,"e","left","01le.bmp",14
26,2,6,1,0,1,1,459,"b","left","01lb.bmp",11
26,2,7,1,0,1,1,573,"f","left","01lf.bmp",15
26,2,10,1,0,1,1,440,"c","left","01lc.bmp",12
26,2,25,2,0,1,1,692,"f","right","01rf.bmp",20
26,2,28,2,0,1,1,675,"e","right","01re.bmp",19
26,2,30,1,0,1,1,571,"d","left","01ld.bmp",13
26,2,31,1,0,1,1,525,"e","left","01le.bmp",14
26,2,34,2,0,1,1,585,"d","right","01rd.bmp",18
26,2,36,2,0,1,1,577,"b","right","01rb.bmp",16
26,2,38,2,0,1,1,501,"c","right","01rc.bmp",17
26,3,1,1,0,1,1,617,"c","left","01lc.bmp",12
26,3,3,1,0,1,1,447,"e","left","01le.bmp",14
26,3,4,1,0,1,1,431,"b","left","01lb.bmp",11
26,3,7,2,0,1,1,607,"f","right","01rf.bmp",20
26,3,18,1,0,1,1,475,"f","left","01lf.bmp",15
26,3,21,1,0,1,1,428,"d","left","01ld.bmp",13
26,3,34,2,0,1,1,454,"d","right","01rd.bmp",18
26,3,35,2,0,1,1,449,"b","right","01rb.bmp",16
26,3,39,2,0,1,1,545,"e","right","01re.bmp",19
26,3,40,2,0,1,1,465,"c","right","01rc.bmp",17
26,4,5,1,0,1,1,567,"e","left","01le.bmp",14
26,4,13,2,0,1,1,517,"f","right","01rf.bmp",20
26,4,20,1,0,1,1,668,"d","left","01ld.bmp",13
26,4,22,1,0,1,1,478,"c","left","01lc.bmp",12
26,4,27,2,0,1,1,589,"c","right","01rc.bmp",17
26,4,28,2,0,1,1,543,"e","right","01re.bmp",19
26,4,32,1,0,1,1,644,"f","left","01lf.bmp",15
26,4,36,1,0,1,1,480,"b","left","01lb.bmp",11
26,4,37,2,0,1,1,640,"d","right","01rd.bmp",18
26,4,40,2,0,1,1,562,"b","right","01rb.bmp",16
6,1,1,1,0,1,1,1408,"d","left","01ld.bmp",13
6,1,3,2,0,1,1,858,"b","right","01rb.bmp",16
6,1,5,1,0,1,1,1099,"e","left","01le.bmp",14
6,1,13,2,0,1,1,776,"d","right","01rd.bmp",18
6,1,16,1,0,1,1,587,"b","left","01lb.bmp",11
6,1,19,2,0,1,1,603,"c","right","01rc.bmp",17
6,1,24,1,0,1,1,755,"c","left","01lc.bmp",12
6,1,28,2,0,1,1,868,"f","right","01rf.bmp",20
6,1,31,1,0,1,1,1017,"f","left","01lf.bmp",15
6,1,39,2,0,1,1,939,"e","right","01re.bmp",19
6,2,9,2,0,1,1,522,"f","right","01rf.bmp",20
6,2,10,2,0,1,1,486,"c","right","01rc.bmp",17
6,2,17,2,0,1,1,538,"b","right","01rb.bmp",16
6,2,19,1,0,1,1,529,"b","left","01lb.bmp",11
6,2,23,1,0,1,1,670,"f","left","01lf.bmp",15
6,2,24,1,0,1,1,565,"e","left","01le.bmp",14
6,2,33,2,0,1,1,514,"d","right","01rd.bmp",18
6,2,34,1,0,1,1,757,"d","left","01ld.bmp",13
6,2,36,1,0,1,1,469,"c","left","01lc.bmp",12
6,2,40,2,0,1,1,808,"e","right","01re.bmp",19
6,3,1,1,0,1,1,717,"f","left","01lf.bmp",15
6,3,4,2,0,1,1,636,"f","right","01rf.bmp",20
6,3,12,1,0,1,1,704,"c","left","01lc.bmp",12
6,3,17,2,0,1,1,675,"d","right","01rd.bmp",18
6,3,20,2,0,1,1,729,"e","right","01re.bmp",19
6,3,23,1,0,1,1,796,"e","left","01le.bmp",14
6,3,30,2,0,1,1,553,"b","right","01rb.bmp",16
6,3,31,1,0,1,1,557,"b","left","01lb.bmp",11
6,3,36,1,0,1,1,702,"d","left","01ld.bmp",13
6,3,37,2,0,1,1,586,"c","right","01rc.bmp",17
6,4,2,1,0,1,1,680,"b","left","01lb.bmp",11
6,4,9,1,0,1,1,658,"d","left","01ld.bmp",13
6,4,13,2,0,1,1,408,"b","right","01rb.bmp",16
6,4,14,1,0,1,1,516,"f","left","01lf.bmp",15
6,4,15,1,0,1,1,424,"c","left","01lc.bmp",12
6,4,16,2,0,1,1,528,"f","right","01rf.bmp",20
6,4,28,2,0,1,1,359,"e","right","01re.bmp",19
6,4,29,2,0,1,1,449,"c","right","01rc.bmp",17
6,4,32,2,0,1,1,573,"d","right","01rd.bmp",18
6,4,35,1,0,1,1,839,"e","left","01le.bmp",14
8,1,3,2,0,1,1,523,"e","right","01re.bmp",19
8,1,14,1,0,1,1,765,"c","left","01lc.bmp",12
8,1,16,2,0,1,1,483,"b","right","01rb.bmp",16
8,1,17,1,0,1,1,462,"b","left","01lb.bmp",11
8,1,19,2,0,1,1,766,"d","right","01rd.bmp",18
8,1,27,1,0,1,1,632,"f","left","01lf.bmp",15
8,1,30,2,0,1,1,459,"c","right","01rc.bmp",17
8,1,37,1,0,1,1,674,"d","left","01ld.bmp",13
8,1,38,2,0,1,1,719,"f","right","01rf.bmp",20
8,1,40,1,0,1,1,835,"e","left","01le.bmp",14
8,2,2,2,0,1,1,689,"e","right","01re.bmp",19
8,2,8,1,0,1,1,624,"e","left","01le.bmp",14
8,2,9,1,0,1,1,536,"d","left","01ld.bmp",13
8,2,11,2,0,1,1,638,"d","right","01rd.bmp",18
8,2,21,2,0,1,1,450,"c","right","01rc.bmp",17
8,2,22,1,0,1,1,566,"c","left","01lc.bmp",12
8,2,23,1,0,1,1,470,"f","left","01lf.bmp",15
8,2,26,2,0,1,1,491,"f","right","01rf.bmp",20
8,2,33,1,0,1,1,505,"b","left","01lb.bmp",11
8,2,38,2,0,1,1,547,"b","right","01rb.bmp",16
8,3,4,2,0,1,1,431,"c","right","01rc.bmp",17
8,3,5,1,0,1,1,492,"b","left","01lb.bmp",11
8,3,6,1,0,1,1,509,"f","left","01lf.bmp",15
8,3,7,1,0,1,1,434,"e","left","01le.bmp",14
8,3,8,1,0,1,1,555,"d","left","01ld.bmp",13
8,3,18,2,0,1,1,543,"f","right","01rf.bmp",20
8,3,23,2,0,1,1,575,"e","right","01re.bmp",19
8,3,24,1,0,1,1,514,"c","left","01lc.bmp",12
8,3,28,2,0,1,1,587,"d","right","01rd.bmp",18
8,3,29,2,0,1,1,483,"b","right","01rb.bmp",16
8,4,3,2,0,1,1,454,"b","right","01rb.bmp",16
8,4,5,2,0,1,1,508,"c","right","01rc.bmp",17
8,4,8,1,0,1,1,617,"d","left","01ld.bmp",13
8,4,9,2,0,1,1,657,"d","right","01rd.bmp",18
8,4,10,2,0,1,1,419,"e","right","01re.bmp",19
8,4,13,1,0,1,1,518,"e","left","01le.bmp",14
8,4,19,1,0,1,1,580,"f","left","01lf.bmp",15
8,4,20,1,0,1,1,497,"b","left","01lb.bmp",11
8,4,32,1,0,1,1,511,"c","left","01lc.bmp",12
8,4,39,2,0,1,1,489,"f","right","01rf.bmp",20
9,1,2,1,0,1,1,572,"d","left","01ld.bmp",13
9,1,5,2,0,1,1,626,"f","right","01rf.bmp",20
9,1,11,1,0,1,1,583,"f","left","01lf.bmp",15
9,1,13,1,0,1,1,461,"b","left","01lb.bmp",11
9,1,17,1,0,1,1,579,"e","left","01le.bmp",14
9,1,20,2,0,1,1,485,"b","right","01rb.bmp",16
9,1,21,2,0,1,1,462,"c","right","01rc.bmp",17
9,1,22,1,0,1,1,474,"c","left","01lc.bmp",12
9,1,25,2,0,1,1,539,"e","right","01re.bmp",19
9,1,33,2,0,1,1,471,"d","right","01rd.bmp",18
9,2,1,2,0,1,1,774,"d","right","01rd.bmp",18
9,2,5,2,0,1,1,481,"c","right","01rc.bmp",17
9,2,7,1,0,1,1,576,"e","left","01le.bmp",14
9,2,10,2,0,1,1,567,"e","right","01re.bmp",19
9,2,18,2,0,1,1,607,"f","right","01rf.bmp",20
9,2,19,1,0,1,1,434,"c","left","01lc.bmp",12
9,2,22,1,0,1,1,492,"f","left","01lf.bmp",15
9,2,27,1,0,1,1,544,"d","left","01ld.bmp",13
9,2,30,1,0,1,1,426,"b","left","01lb.bmp",11
9,2,40,2,0,1,1,448,"b","right","01rb.bmp",16
9,3,3,1,0,1,1,439,"c","left","01lc.bmp",12
9,3,6,2,0,1,1,507,"b","right","01rb.bmp",16
9,3,8,2,0,1,1,544,"f","right","01rf.bmp",20
9,3,13,1,0,1,1,669,"e","left","01le.bmp",14
9,3,17,2,0,1,1,532,"e","right","01re.bmp",19
9,3,18,1,0,1,1,394,"b","left","01lb.bmp",11
9,3,19,2,0,1,1,418,"c","right","01rc.bmp",17
9,3,33,2,0,1,1,412,"d","right","01rd.bmp",18
9,3,35,1,0,1,1,688,"d","left","01ld.bmp",13
9,3,36,1,0,1,1,518,"f","left","01lf.bmp",15
9,4,1,1,0,1,1,517,"b","left","01lb.bmp",11
9,4,6,2,0,1,1,709,"e","right","01re.bmp",19
9,4,11,1,0,1,1,550,"c","left","01lc.bmp",12
9,4,13,2,0,1,1,527,"d","right","01rd.bmp",18
9,4,15,2,0,1,1,356,"b","right","01rb.bmp",16
9,4,16,2,0,1,1,454,"c","right","01rc.bmp",17
9,4,24,1,0,1,1,604,"e","left","01le.bmp",14
9,4,26,1,0,1,1,466,"f","left","01lf.bmp",15
9,4,37,2,0,1,1,577,"f","right","01rf.bmp",20
9,4,39,1,0,1,1,491,"d","left","01ld.bmp",13
10,1,5,2,1,0,1,551,"c","right","10rc.bmp",27
10,1,6,2,1,0,1,526,"b","right","10rb.bmp",26
10,1,8,1,1,0,1,697,"c","left","10lc.bmp",22
10,1,14,1,1,0,1,636,"d","left","10ld.bmp",23
10,1,20,2,1,0,1,903,"e","right","10re.bmp",29
10,1,21,1,1,0,1,463,"b","left","10lb.bmp",21
10,1,26,1,1,0,1,524,"f","left","10lf.bmp",25
10,1,29,1,1,0,1,1230,"e","left","10le.bmp",24
10,1,31,2,1,0,1,720,"f","right","10rf.bmp",30
10,1,35,2,1,0,1,465,"d","right","10rd.bmp",28
10,2,4,2,1,0,1,683,"e","right","10re.bmp",29
10,2,13,2,1,0,1,705,"c","right","10rc.bmp",27
10,2,15,2,1,0,1,538,"d","right","10rd.bmp",28
10,2,18,2,1,0,1,532,"f","right","10rf.bmp",30
10,2,24,1,1,0,1,598,"b","left","10lb.bmp",21
10,2,25,1,1,0,1,523,"f","left","10lf.bmp",25
10,2,29,1,1,0,1,445,"c","left","10lc.bmp",22
10,2,30,1,1,0,1,584,"e","left","10le.bmp",24
10,2,35,2,1,0,1,729,"b","right","10rb.bmp",26
10,2,39,1,1,0,1,522,"d","left","10ld.bmp",23
10,3,2,2,1,0,1,443,"e","right","10re.bmp",29
10,3,3,2,1,0,1,495,"f","right","10rf.bmp",30
10,3,4,1,1,0,1,386,"c","left","10lc.bmp",22
10,3,6,2,1,0,1,491,"d","right","10rd.bmp",28
10,3,15,1,1,0,1,428,"f","left","10lf.bmp",25
10,3,19,1,1,0,1,466,"d","left","10ld.bmp",23
10,3,26,2,1,0,1,512,"c","right","10rc.bmp",27
10,3,29,2,1,0,1,471,"b","right","10rb.bmp",26
10,3,33,1,1,0,1,429,"b","left","10lb.bmp",21
10,3,39,1,1,0,1,579,"e","left","10le.bmp",24
10,4,4,2,1,0,1,787,"b","right","10rb.bmp",26
10,4,6,1,1,0,1,452,"d","left","10ld.bmp",23
10,4,8,2,1,0,1,620,"e","right","10re.bmp",29
10,4,12,2,1,0,1,508,"f","right","10rf.bmp",30
10,4,13,2,1,0,1,410,"c","right","10rc.bmp",27
10,4,18,1,1,0,1,835,"e","left","10le.bmp",24
10,4,23,1,1,0,1,384,"b","left","10lb.bmp",21
10,4,26,2,1,0,1,419,"d","right","10rd.bmp",28
10,4,38,1,1,0,1,504,"c","left","10lc.bmp",22
10,4,40,1,1,0,1,472,"f","left","10lf.bmp",25
12,1,3,1,1,0,1,1038,"e","left","10le.bmp",24
12,1,5,2,1,0,1,430,"f","right","10rf.bmp",30
12,1,6,1,1,0,1,564,"c","left","10lc.bmp",22
12,1,13,2,1,0,1,477,"e","right","10re.bmp",29
12,1,21,1,1,0,1,578,"d","left","10ld.bmp",23
12,1,22,2,1,0,1,443,"d","right","10rd.bmp",28
12,1,24,2,1,0,1,502,"b","right","10rb.bmp",26
12,1,35,1,1,0,1,562,"f","left","10lf.bmp",25
12,1,37,2,1,0,0,583,"c","right","10rc.bmp",27
12,1,39,1,1,0,1,547,"b","left","10lb.bmp",21
12,2,1,2,1,0,1,543,"f","right","10rf.bmp",30
12,2,3,2,1,0,1,434,"b","right","10rb.bmp",26
12,2,8,1,1,0,1,450,"d","left","10ld.bmp",23
12,2,9,2,1,0,1,475,"d","right","10rd.bmp",28
12,2,16,1,1,0,1,623,"b","left","10lb.bmp",21
12,2,20,1,1,0,1,591,"e","left","10le.bmp",24
12,2,21,1,1,0,1,661,"f","left","10lf.bmp",25
12,2,23,1,1,0,1,527,"c","left","10lc.bmp",22
12,2,31,2,1,0,1,357,"e","right","10re.bmp",29
12,2,38,2,1,0,1,519,"c","right","10rc.bmp",27
12,3,1,2,1,0,1,558,"c","right","10rc.bmp",27
12,3,12,2,1,0,1,487,"d","right","10rd.bmp",28
12,3,17,1,1,0,1,632,"c","left","10lc.bmp",22
12,3,18,2,1,0,1,388,"b","right","10rb.bmp",26
12,3,28,2,1,0,1,459,"f","right","10rf.bmp",30
12,3,29,1,1,0,1,514,"b","left","10lb.bmp",21
12,3,30,1,1,0,1,494,"f","left","10lf.bmp",25
12,3,31,1,1,0,1,526,"e","left","10le.bmp",24
12,3,35,1,1,0,1,388,"d","left","10ld.bmp",23
12,3,36,2,1,0,1,648,"e","right","10re.bmp",29
12,4,4,1,1,0,1,534,"e","left","10le.bmp",24
12,4,5,1,1,0,1,375,"d","left","10ld.bmp",23
12,4,6,1,1,0,1,405,"f","left","10lf.bmp",25
12,4,9,2,1,0,1,407,"d","right","10rd.bmp",28
12,4,11,1,1,0,1,562,"b","left","10lb.bmp",21
12,4,12,2,1,0,1,553,"f","right","10rf.bmp",30
12,4,21,1,1,0,1,532,"c","left","10lc.bmp",22
12,4,22,2,1,0,1,453,"c","right","10rc.bmp",27
12,4,33,2,1,0,1,532,"e","right","10re.bmp",29
12,4,37,2,1,0,1,453,"b","right","10rb.bmp",26
13,1,1,1,1,0,1,473,"c","left","10lc.bmp",22
13,1,4,2,1,0,1,549,"f","right","10rf.bmp",30
13,1,5,2,1,0,1,457,"b","right","10rb.bmp",26
13,1,10,1,1,0,1,450,"b","left","10lb.bmp",21
13,1,17,2,1,0,1,439,"d","right","10rd.bmp",28
13,1,20,1,1,0,1,523,"e","left","10le.bmp",24
13,1,29,1,1,0,1,665,"f","left","10lf.bmp",25
13,1,33,2,1,0,1,699,"c","right","10rc.bmp",27
13,1,35,1,1,0,1,464,"d","left","10ld.bmp",23
13,1,36,2,1,0,1,485,"e","right","10re.bmp",29
13,2,3,1,1,0,1,386,"d","left","10ld.bmp",23
13,2,8,1,1,0,1,393,"b","left","10lb.bmp",21
13,2,12,1,1,0,1,476,"c","left","10lc.bmp",22
13,2,16,2,1,0,1,465,"e","right","10re.bmp",29
13,2,17,2,1,0,1,665,"f","right","10rf.bmp",30
13,2,20,1,1,0,1,551,"e","left","10le.bmp",24
13,2,24,1,1,0,1,396,"f","left","10lf.bmp",25
13,2,27,2,1,0,1,384,"c","right","10rc.bmp",27
13,2,32,2,1,0,1,450,"b","right","10rb.bmp",26
13,2,37,2,1,0,1,419,"d","right","10rd.bmp",28
13,3,6,1,1,0,1,586,"e","left","10le.bmp",24
13,3,9,2,1,0,1,661,"e","right","10re.bmp",29
13,3,13,1,1,0,1,494,"d","left","10ld.bmp",23
13,3,21,2,1,0,1,442,"f","right","10rf.bmp",30
13,3,23,2,1,0,1,408,"b","right","10rb.bmp",26
13,3,28,1,1,0,1,434,"b","left","10lb.bmp",21
13,3,31,1,1,0,1,488,"c","left","10lc.bmp",22
13,3,33,2,1,0,1,375,"c","right","10rc.bmp",27
13,3,36,2,1,0,1,416,"d","right","10rd.bmp",28
13,3,39,1,1,0,1,436,"f","left","10lf.bmp",25
13,4,5,1,1,0,1,454,"c","left","10lc.bmp",22
13,4,6,2,1,0,1,388,"c","right","10rc.bmp",27
13,4,11,1,1,0,1,419,"d","left","10ld.bmp",23
13,4,13,1,1,0,1,456,"e","left","10le.bmp",24
13,4,15,1,1,0,1,396,"b","left","10lb.bmp",21
13,4,25,2,1,0,1,379,"d","right","10rd.bmp",28
13,4,28,2,1,0,1,412,"e","right","10re.bmp",29
13,4,34,2,1,0,1,351,"b","right","10rb.bmp",26
13,4,35,1,1,0,1,375,"f","left","10lf.bmp",25
13,4,36,2,1,0,1,402,"f","right","10rf.bmp",30
14,1,8,2,1,0,1,700,"e","right","10re.bmp",29
14,1,9,1,1,0,1,524,"b","left","10lb.bmp",21
14,1,11,2,1,0,1,576,"f","right","10rf.bmp",30
14,1,12,1,1,0,1,493,"d","left","10ld.bmp",23
14,1,14,1,1,0,1,691,"e","left","10le.bmp",24
14,1,20,1,1,0,1,493,"f","left","10lf.bmp",25
14,1,21,2,1,0,1,506,"d","right","10rd.bmp",28
14,1,24,1,1,0,1,610,"c","left","10lc.bmp",22
14,1,36,2,1,0,1,512,"b","right","10rb.bmp",26
14,1,40,2,1,0,1,518,"c","right","10rc.bmp",27
14,2,1,1,1,0,1,507,"f","left","10lf.bmp",25
14,2,5,1,1,0,1,424,"b","left","10lb.bmp",21
14,2,7,2,1,0,1,521,"f","right","10rf.bmp",30
14,2,11,2,1,0,1,491,"c","right","10rc.bmp",27
14,2,19,2,1,0,1,440,"b","right","10rb.bmp",26
14,2,23,1,1,0,1,473,"c","left","10lc.bmp",22
14,2,31,2,1,0,1,470,"d","right","10rd.bmp",28
14,2,36,1,1,0,1,389,"d","left","10ld.bmp",23
14,2,39,1,1,0,1,436,"e","left","10le.bmp",24
14,2,40,2,1,0,1,440,"e","right","10re.bmp",29
14,3,4,2,1,0,1,446,"f","right","10rf.bmp",30
14,3,6,1,1,0,1,410,"d","left","10ld.bmp",23
14,3,8,1,1,0,1,665,"e","left","10le.bmp",24
14,3,13,1,1,0,1,610,"c","left","10lc.bmp",22
14,3,14,1,1,0,1,585,"b","left","10lb.bmp",21
14,3,17,2,1,0,1,554,"c","right","10rc.bmp",27
14,3,19,2,1,0,1,459,"d","right","10rd.bmp",28
14,3,20,2,1,0,1,510,"e","right","10re.bmp",29
14,3,24,1,1,0,1,482,"f","left","10lf.bmp",25
14,3,28,2,1,0,1,480,"b","right","10rb.bmp",26
14,4,6,2,1,0,1,487,"f","right","10rf.bmp",30
14,4,10,1,1,0,1,532,"e","left","10le.bmp",24
14,4,11,2,1,0,1,483,"d","right","10rd.bmp",28
14,4,14,1,1,0,1,454,"f","left","10lf.bmp",25
14,4,17,2,1,0,1,413,"e","right","10re.bmp",29
14,4,25,1,1,0,1,393,"d","left","10ld.bmp",23
14,4,27,1,1,0,1,330,"c","left","10lc.bmp",22
14,4,28,2,1,0,0,369,"b","right","10rb.bmp",26
14,4,34,2,1,0,1,808,"c","right","10rc.bmp",27
14,4,39,1,1,0,1,473,"b","left","10lb.bmp",21
15,1,5,2,1,0,1,503,"d","right","10rd.bmp",28
15,1,6,1,1,0,1,550,"d","left","10ld.bmp",23
15,1,13,1,1,0,1,621,"f","left","10lf.bmp",25
15,1,23,1,1,0,1,538,"e","left","10le.bmp",24
15,1,24,1,1,0,1,455,"c","left","10lc.bmp",22
15,1,26,2,1,0,1,486,"b","right","10rb.bmp",26
15,1,27,1,1,0,1,430,"b","left","10lb.bmp",21
15,1,31,2,1,0,1,493,"f","right","10rf.bmp",30
15,1,37,2,1,0,1,597,"e","right","10re.bmp",29
15,1,39,2,1,0,1,623,"c","right","10rc.bmp",27
15,2,4,2,1,0,1,805,"e","right","10re.bmp",29
15,2,5,1,1,0,1,478,"b","left","10lb.bmp",21
15,2,6,1,1,0,1,651,"e","left","10le.bmp",24
15,2,7,2,1,0,1,502,"d","right","10rd.bmp",28
15,2,12,2,1,0,1,483,"f","right","10rf.bmp",30
15,2,19,1,1,0,1,463,"d","left","10ld.bmp",23
15,2,23,2,1,0,1,482,"c","right","10rc.bmp",27
15,2,24,1,1,0,1,583,"f","left","10lf.bmp",25
15,2,31,1,1,0,1,555,"c","left","10lc.bmp",22
15,2,40,2,1,0,1,442,"b","right","10rb.bmp",26
15,3,3,2,1,0,1,462,"f","right","10rf.bmp",30
15,3,4,2,1,0,1,370,"b","right","10rb.bmp",26
15,3,5,2,1,0,1,438,"e","right","10re.bmp",29
15,3,9,2,1,0,1,465,"c","right","10rc.bmp",27
15,3,15,1,1,0,1,470,"c","left","10lc.bmp",22
15,3,16,2,1,0,1,434,"d","right","10rd.bmp",28
15,3,18,1,1,0,1,557,"e","left","10le.bmp",24
15,3,21,1,1,0,1,471,"b","left","10lb.bmp",21
15,3,24,1,1,0,1,475,"d","left","10ld.bmp",23
15,3,28,1,1,0,1,523,"f","left","10lf.bmp",25
15,4,4,2,1,0,1,621,"e","right","10re.bmp",29
15,4,6,2,1,0,1,412,"b","right","10rb.bmp",26
15,4,7,2,1,0,1,383,"d","right","10rd.bmp",28
15,4,11,2,1,0,1,558,"c","right","10rc.bmp",27
15,4,19,1,1,0,1,567,"e","left","10le.bmp",24
15,4,20,1,1,0,1,534,"d","left","10ld.bmp",23
15,4,24,1,1,0,1,634,"b","left","10lb.bmp",21
15,4,36,1,1,0,1,940,"f","left","10lf.bmp",25
15,4,38,1,1,0,1,945,"c","left","10lc.bmp",22
15,4,40,2,1,0,1,496,"f","right","10rf.bmp",30
18,1,7,1,1,0,1,446,"d","left","10ld.bmp",23
18,1,9,2,1,0,1,489,"b","right","10rb.bmp",26
18,1,10,2,1,0,0,742,"e","right","10re.bmp",29
18,1,13,1,1,0,1,491,"c","left","10lc.bmp",22
18,1,19,1,1,0,1,505,"b","left","10lb.bmp",21
18,1,22,1,1,0,1,585,"e","left","10le.bmp",24
18,1,25,2,1,0,1,409,"c","right","10rc.bmp",27
18,1,27,2,1,0,1,496,"d","right","10rd.bmp",28
18,1,28,2,1,0,1,565,"f","right","10rf.bmp",30
18,1,30,1,1,0,1,514,"f","left","10lf.bmp",25
18,2,3,2,1,0,1,397,"b","right","10rb.bmp",26
18,2,4,2,1,0,1,526,"e","right","10re.bmp",29
18,2,9,1,1,0,1,539,"f","left","10lf.bmp",25
18,2,10,2,1,0,1,386,"d","right","10rd.bmp",28
18,2,12,2,1,0,1,376,"c","right","10rc.bmp",27
18,2,13,1,1,0,1,376,"e","left","10le.bmp",24
18,2,16,1,1,0,1,366,"d","left","10ld.bmp",23
18,2,19,1,1,0,1,599,"c","left","10lc.bmp",22
18,2,25,1,1,0,1,605,"b","left","10lb.bmp",21
18,2,39,2,1,0,1,677,"f","right","10rf.bmp",30
18,3,3,1,1,0,0,410,"b","left","10lb.bmp",21
18,3,6,2,1,0,1,460,"b","right","10rb.bmp",26
18,3,8,2,1,0,1,571,"c","right","10rc.bmp",27
18,3,9,1,1,0,1,762,"e","left","10le.bmp",24
18,3,13,1,1,0,1,615,"c","left","10lc.bmp",22
18,3,24,1,1,0,1,623,"f","left","10lf.bmp",25
18,3,25,1,1,0,1,665,"d","left","10ld.bmp",23
18,3,37,2,1,0,1,629,"f","right","10rf.bmp",30
18,3,39,2,1,0,1,702,"e","right","10re.bmp",29
18,3,40,2,1,0,1,494,"d","right","10rd.bmp",28
18,4,1,1,1,0,1,886,"b","left","10lb.bmp",21
18,4,3,1,1,0,1,730,"e","left","10le.bmp",24
18,4,4,2,1,0,1,583,"b","right","10rb.bmp",26
18,4,8,2,1,0,1,523,"c","right","10rc.bmp",27
18,4,11,1,1,0,1,810,"c","left","10lc.bmp",22
18,4,15,1,1,0,1,606,"f","left","10lf.bmp",25
18,4,19,2,1,0,1,940,"e","right","10re.bmp",29
18,4,22,2,1,0,1,1039,"f","right","10rf.bmp",30
18,4,24,2,1,0,1,583,"d","right","10rd.bmp",28
18,4,33,1,1,0,1,613,"d","left","10ld.bmp",23
20,1,3,2,1,0,1,413,"d","right","10rd.bmp",28
20,1,9,2,1,0,1,404,"c","right","10rc.bmp",27
20,1,10,1,1,0,1,381,"b","left","10lb.bmp",21
20,1,11,1,1,0,1,475,"f","left","10lf.bmp",25
20,1,13,2,1,0,1,525,"e","right","10re.bmp",29
20,1,16,2,1,0,1,396,"b","right","10rb.bmp",26
20,1,22,1,1,0,1,378,"d","left","10ld.bmp",23
20,1,37,2,1,0,1,517,"f","right","10rf.bmp",30
20,1,38,1,1,0,1,480,"c","left","10lc.bmp",22
20,1,40,1,1,0,1,600,"e","left","10le.bmp",24
20,2,1,2,1,0,1,640,"f","right","10rf.bmp",30
20,2,2,1,1,0,1,455,"b","left","10lb.bmp",21
20,2,3,2,1,0,1,435,"b","right","10rb.bmp",26
20,2,18,2,1,0,1,529,"e","right","10re.bmp",29
20,2,21,1,1,0,1,597,"f","left","10lf.bmp",25
20,2,22,1,1,0,1,617,"e","left","10le.bmp",24
20,2,32,1,1,0,1,501,"c","left","10lc.bmp",22
20,2,36,2,1,0,1,611,"d","right","10rd.bmp",28
20,2,37,1,1,0,1,393,"d","left","10ld.bmp",23
20,2,38,2,1,0,1,424,"c","right","10rc.bmp",27
20,3,4,1,1,0,1,385,"b","left","10lb.bmp",21
20,3,7,2,1,0,1,399,"b","right","10rb.bmp",26
20,3,16,1,1,0,1,534,"f","left","10lf.bmp",25
20,3,21,2,1,0,1,441,"f","right","10rf.bmp",30
20,3,22,2,1,0,1,432,"c","right","10rc.bmp",27
20,3,25,2,1,0,1,396,"d","right","10rd.bmp",28
20,3,26,1,1,0,1,526,"e","left","10le.bmp",24
20,3,30,2,1,0,1,416,"e","right","10re.bmp",29
20,3,34,1,1,0,1,370,"d","left","10ld.bmp",23
20,3,40,1,1,0,1,451,"c","left","10lc.bmp",22
20,4,6,1,1,0,1,963,"e","left","10le.bmp",24
20,4,14,1,1,0,1,342,"b","left","10lb.bmp",21
20,4,18,2,1,0,1,421,"b","right","10rb.bmp",26
20,4,19,2,1,0,1,392,"d","right","10rd.bmp",28
20,4,22,2,1,0,1,512,"e","right","10re.bmp",29
20,4,25,1,1,0,1,411,"f","left","10lf.bmp",25
20,4,27,1,1,0,1,632,"c","left","10lc.bmp",22
20,4,29,1,1,0,1,371,"d","left","10ld.bmp",23
20,4,32,2,1,0,1,478,"c","right","10rc.bmp",27
20,4,39,2,1,0,1,400,"f","right","10rf.bmp",30
22,1,6,2,1,0,1,794,"d","right","10rd.bmp",28
22,1,8,2,1,0,1,700,"b","right","10rb.bmp",26
22,1,12,2,1,0,1,757,"f","right","10rf.bmp",30
22,1,20,1,1,0,1,776,"e","left","10le.bmp",24
22,1,23,1,1,0,1,606,"d","left","10ld.bmp",23
22,1,25,1,1,0,1,641,"f","left","10lf.bmp",25
22,1,26,1,1,0,1,649,"c","left","10lc.bmp",22
22,1,31,1,1,0,1,1183,"b","left","10lb.bmp",21
22,1,32,2,1,0,1,574,"c","right","10rc.bmp",27
22,1,35,2,1,0,1,680,"e","right","10re.bmp",29
22,2,4,1,1,0,1,528,"b","left","10lb.bmp",21
22,2,6,1,1,0,1,434,"d","left","10ld.bmp",23
22,2,10,2,1,0,1,461,"b","right","10rb.bmp",26
22,2,18,2,1,0,1,581,"e","right","10re.bmp",29
22,2,20,2,1,0,1,536,"f","right","10rf.bmp",30
22,2,25,2,1,0,1,485,"c","right","10rc.bmp",27
22,2,27,1,1,0,1,633,"e","left","10le.bmp",24
22,2,29,1,1,0,1,396,"f","left","10lf.bmp",25
22,2,35,1,1,0,1,573,"c","left","10lc.bmp",22
22,2,36,2,1,0,1,487,"d","right","10rd.bmp",28
22,3,2,2,1,0,1,404,"d","right","10rd.bmp",28
22,3,3,1,1,0,1,445,"b","left","10lb.bmp",21
22,3,10,1,1,0,1,470,"c","left","10lc.bmp",22
22,3,15,1,1,0,1,493,"d","left","10ld.bmp",23
22,3,16,2,1,0,1,381,"c","right","10rc.bmp",27
22,3,17,2,1,0,1,430,"b","right","10rb.bmp",26
22,3,23,1,1,0,1,433,"f","left","10lf.bmp",25
22,3,25,1,1,0,1,611,"e","left","10le.bmp",24
22,3,29,2,1,0,1,496,"f","right","10rf.bmp",30
22,3,32,2,1,0,1,560,"e","right","10re.bmp",29
22,4,2,1,1,0,1,483,"f","left","10lf.bmp",25
22,4,6,2,1,0,1,479,"c","right","10rc.bmp",27
22,4,8,1,1,0,1,432,"c","left","10lc.bmp",22
22,4,11,2,1,0,1,452,"d","right","10rd.bmp",28
22,4,12,2,1,0,1,485,"e","right","10re.bmp",29
22,4,21,2,1,0,1,432,"b","right","10rb.bmp",26
22,4,31,2,1,0,1,468,"f","right","10rf.bmp",30
22,4,34,1,1,0,1,528,"e","left","10le.bmp",24
22,4,38,1,1,0,1,396,"d","left","10ld.bmp",23
22,4,40,1,1,0,1,417,"b","left","10lb.bmp",21
26,1,10,2,1,0,1,605,"c","right","10rc.bmp",27
26,1,17,2,1,0,1,657,"e","right","10re.bmp",29
26,1,18,2,1,0,1,440,"b","right","10rb.bmp",26
26,1,20,2,1,0,1,542,"f","right","10rf.bmp",30
26,1,21,1,1,0,1,657,"e","left","10le.bmp",24
26,1,24,2,1,0,1,505,"d","right","10rd.bmp",28
26,1,26,1,1,0,1,580,"d","left","10ld.bmp",23
26,1,31,1,1,0,1,515,"b","left","10lb.bmp",21
26,1,33,1,1,0,1,497,"c","left","10lc.bmp",22
26,1,38,1,1,0,1,646,"f","left","10lf.bmp",25
26,2,1,2,1,0,1,599,"f","right","10rf.bmp",30
26,2,4,1,1,0,1,544,"d","left","10ld.bmp",23
26,2,11,2,1,0,1,410,"b","right","10rb.bmp",26
26,2,15,2,1,0,1,567,"d","right","10rd.bmp",28
26,2,19,2,1,0,1,518,"c","right","10rc.bmp",27
26,2,24,1,1,0,1,466,"b","left","10lb.bmp",21
26,2,26,1,1,0,1,706,"c","left","10lc.bmp",22
26,2,32,2,1,0,1,525,"e","right","10re.bmp",29
26,2,33,1,1,0,1,513,"e","left","10le.bmp",24
26,2,35,1,1,0,1,595,"f","left","10lf.bmp",25
26,3,5,1,1,0,1,493,"e","left","10le.bmp",24
26,3,8,2,1,0,1,560,"e","right","10re.bmp",29
26,3,11,2,1,0,1,578,"f","right","10rf.bmp",30
26,3,14,1,1,0,1,464,"b","left","10lb.bmp",21
26,3,24,2,1,0,1,596,"b","right","10rb.bmp",26
26,3,26,1,1,0,1,447,"c","left","10lc.bmp",22
26,3,27,1,1,0,1,404,"d","left","10ld.bmp",23
26,3,28,2,1,0,1,391,"c","right","10rc.bmp",27
26,3,29,2,1,0,1,505,"d","right","10rd.bmp",28
26,3,31,1,1,0,1,414,"f","left","10lf.bmp",25
26,4,2,2,1,0,1,425,"b","right","10rb.bmp",26
26,4,8,1,1,0,1,438,"d","left","10ld.bmp",23
26,4,15,2,1,0,1,592,"f","right","10rf.bmp",30
26,4,18,1,1,0,1,700,"e","left","10le.bmp",24
26,4,21,2,1,0,1,540,"e","right","10re.bmp",29
26,4,24,2,1,0,1,573,"d","right","10rd.bmp",28
26,4,29,1,1,0,1,698,"f","left","10lf.bmp",25
26,4,31,2,1,0,1,527,"c","right","10rc.bmp",27
26,4,33,1,1,0,1,482,"b","left","10lb.bmp",21
26,4,34,1,1,0,1,442,"c","left","10lc.bmp",22
6,1,2,2,1,0,1,1032,"e","right","10re.bmp",29
6,1,6,1,1,0,1,707,"f","left","10lf.bmp",25
6,1,8,2,1,0,1,709,"f","right","10rf.bmp",30
6,1,15,2,1,0,1,584,"b","right","10rb.bmp",26
6,1,18,1,1,0,1,593,"d","left","10ld.bmp",23
6,1,20,2,1,0,1,577,"d","right","10rd.bmp",28
6,1,23,1,1,0,1,581,"e","left","10le.bmp",24
6,1,26,2,1,0,1,604,"c","right","10rc.bmp",27
6,1,29,1,1,0,1,756,"b","left","10lb.bmp",21
6,1,32,1,1,0,1,1044,"c","left","10lc.bmp",22
6,2,1,1,1,0,1,501,"b","left","10lb.bmp",21
6,2,2,1,1,0,1,615,"d","left","10ld.bmp",23
6,2,3,1,1,0,1,530,"f","left","10lf.bmp",25
6,2,7,2,1,0,1,531,"e","right","10re.bmp",29
6,2,11,2,1,0,1,508,"c","right","10rc.bmp",27
6,2,22,1,1,0,1,618,"e","left","10le.bmp",24
6,2,25,2,1,0,1,691,"f","right","10rf.bmp",30
6,2,30,2,1,0,1,491,"b","right","10rb.bmp",26
6,2,32,2,1,0,1,455,"d","right","10rd.bmp",28
6,2,37,1,1,0,1,545,"c","left","10lc.bmp",22
6,3,6,1,1,0,1,590,"b","left","10lb.bmp",21
6,3,8,2,1,0,1,465,"b","right","10rb.bmp",26
6,3,11,2,1,0,1,499,"c","right","10rc.bmp",27
6,3,13,1,1,0,1,522,"d","left","10ld.bmp",23
6,3,14,2,1,0,1,511,"f","right","10rf.bmp",30
6,3,24,2,1,0,1,513,"d","right","10rd.bmp",28
6,3,26,2,1,0,1,587,"e","right","10re.bmp",29
6,3,27,1,1,0,1,564,"f","left","10lf.bmp",25
6,3,28,1,1,0,1,691,"e","left","10le.bmp",24
6,3,32,1,1,0,1,549,"c","left","10lc.bmp",22
6,4,3,1,1,0,1,593,"d","left","10ld.bmp",23
6,4,6,2,1,0,1,419,"f","right","10rf.bmp",30
6,4,8,2,1,0,1,458,"c","right","10rc.bmp",27
6,4,10,1,1,0,1,430,"f","left","10lf.bmp",25
6,4,11,2,1,0,1,503,"b","right","10rb.bmp",26
6,4,19,1,1,0,1,435,"e","left","10le.bmp",24
6,4,20,1,1,0,1,399,"c","left","10lc.bmp",22
6,4,36,1,1,0,1,481,"b","left","10lb.bmp",21
6,4,38,2,1,0,0,471,"e","right","10re.bmp",29
6,4,40,2,1,0,1,491,"d","right","10rd.bmp",28
8,1,11,2,1,0,1,591,"d","right","10rd.bmp",28
8,1,12,1,1,0,1,549,"c","left","10lc.bmp",22
8,1,13,2,1,0,1,429,"b","right","10rb.bmp",26
8,1,18,2,1,0,1,590,"f","right","10rf.bmp",30
8,1,20,1,1,0,1,811,"e","left","10le.bmp",24
8,1,25,2,1,0,1,480,"c","right","10rc.bmp",27
8,1,26,2,1,0,1,574,"e","right","10re.bmp",29
8,1,29,1,1,0,1,682,"f","left","10lf.bmp",25
8,1,33,1,1,0,1,522,"b","left","10lb.bmp",21
8,1,36,1,1,0,1,454,"d","left","10ld.bmp",23
8,2,1,2,1,0,1,537,"d","right","10rd.bmp",28
8,2,5,2,1,0,1,536,"e","right","10re.bmp",29
8,2,6,1,1,0,1,602,"f","left","10lf.bmp",25
8,2,12,1,1,0,1,432,"d","left","10ld.bmp",23
8,2,16,1,1,0,1,434,"c","left","10lc.bmp",22
8,2,25,2,1,0,1,460,"b","right","10rb.bmp",26
8,2,29,2,1,0,1,435,"f","right","10rf.bmp",30
8,2,34,1,1,0,1,451,"b","left","10lb.bmp",21
8,2,36,2,1,0,1,516,"c","right","10rc.bmp",27
8,2,39,1,1,0,1,666,"e","left","10le.bmp",24
8,3,2,2,1,0,1,361,"c","right","10rc.bmp",27
8,3,3,2,1,0,1,440,"d","right","10rd.bmp",28
8,3,11,2,1,0,1,434,"b","right","10rb.bmp",26
8,3,15,1,1,0,1,396,"d","left","10ld.bmp",23
8,3,16,2,1,0,1,436,"f","right","10rf.bmp",30
8,3,17,1,1,0,1,415,"c","left","10lc.bmp",22
8,3,30,1,1,0,1,608,"b","left","10lb.bmp",21
8,3,31,1,1,0,1,664,"e","left","10le.bmp",24
8,3,33,2,1,0,1,529,"e","right","10re.bmp",29
8,3,36,1,1,0,1,537,"f","left","10lf.bmp",25
8,4,2,1,1,0,1,571,"e","left","10le.bmp",24
8,4,7,1,1,0,1,464,"d","left","10ld.bmp",23
8,4,11,2,1,0,1,461,"b","right","10rb.bmp",26
8,4,12,1,1,0,1,497,"f","left","10lf.bmp",25
8,4,14,2,1,0,1,491,"c","right","10rc.bmp",27
8,4,28,2,1,0,1,482,"d","right","10rd.bmp",28
8,4,30,2,1,0,1,401,"f","right","10rf.bmp",30
8,4,33,1,1,0,1,488,"c","left","10lc.bmp",22
8,4,36,1,1,0,1,392,"b","left","10lb.bmp",21
8,4,40,2,1,0,1,437,"e","right","10re.bmp",29
9,1,6,1,1,0,1,734,"e","left","10le.bmp",24
9,1,10,1,1,0,1,470,"b","left","10lb.bmp",21
9,1,14,2,1,0,1,582,"e","right","10re.bmp",29
9,1,18,1,1,0,1,450,"d","left","10ld.bmp",23
9,1,24,1,1,0,1,442,"f","left","10lf.bmp",25
9,1,28,2,1,0,1,408,"b","right","10rb.bmp",26
9,1,29,2,1,0,1,487,"f","right","10rf.bmp",30
9,1,30,1,1,0,1,359,"c","left","10lc.bmp",22
9,1,37,2,1,0,1,415,"c","right","10rc.bmp",27
9,1,40,2,1,0,1,400,"d","right","10rd.bmp",28
9,2,2,2,1,0,1,499,"d","right","10rd.bmp",28
9,2,9,2,1,0,1,446,"c","right","10rc.bmp",27
9,2,11,2,1,0,1,480,"e","right","10re.bmp",29
9,2,12,1,1,0,1,390,"c","left","10lc.bmp",22
9,2,21,2,1,0,1,447,"b","right","10rb.bmp",26
9,2,23,2,1,0,1,413,"f","right","10rf.bmp",30
9,2,24,1,1,0,1,498,"b","left","10lb.bmp",21
9,2,26,1,1,0,1,418,"f","left","10lf.bmp",25
9,2,31,1,1,0,1,494,"e","left","10le.bmp",24
9,2,33,1,1,0,1,437,"d","left","10ld.bmp",23
9,3,4,2,1,0,1,388,"b","right","10rb.bmp",26
9,3,5,2,1,0,1,518,"f","right","10rf.bmp",30
9,3,7,1,1,0,1,415,"d","left","10ld.bmp",23
9,3,9,2,1,0,1,379,"c","right","10rc.bmp",27
9,3,10,1,1,0,1,505,"e","left","10le.bmp",24
9,3,12,1,1,0,1,433,"f","left","10lf.bmp",25
9,3,24,2,1,0,1,442,"d","right","10rd.bmp",28
9,3,26,2,1,0,1,488,"e","right","10re.bmp",29
9,3,37,1,1,0,1,409,"b","left","10lb.bmp",21
9,3,40,1,1,0,1,551,"c","left","10lc.bmp",22
9,4,2,1,1,0,1,533,"e","left","10le.bmp",24
9,4,4,2,1,0,1,370,"b","right","10rb.bmp",26
9,4,7,1,1,0,1,468,"d","left","10ld.bmp",23
9,4,8,2,1,0,1,470,"c","right","10rc.bmp",27
9,4,12,2,1,0,1,410,"f","right","10rf.bmp",30
9,4,17,1,1,0,1,491,"c","left","10lc.bmp",22
9,4,22,2,1,0,1,449,"d","right","10rd.bmp",28
9,4,23,2,1,0,1,408,"e","right","10re.bmp",29
9,4,30,1,1,0,1,473,"f","left","10lf.bmp",25
9,4,35,1,1,0,1,409,"b","left","10lb.bmp",21
10,1,9,2,1,1,1,938,"d","right","11rd.bmp",38
10,1,10,1,1,1,1,814,"b","left","11lb.bmp",31
10,1,16,2,1,1,1,735,"b","right","11rb.bmp",36
10,1,19,1,1,1,1,738,"d","left","11ld.bmp",33
10,1,22,2,1,1,1,818,"e","right","11re.bmp",39
10,1,23,1,1,1,1,651,"c","left","11lc.bmp",32
10,1,25,1,1,1,1,928,"f","left","11lf.bmp",35
10,1,36,2,1,1,1,713,"c","right","11rc.bmp",37
10,1,37,1,1,1,1,622,"e","left","11le.bmp",34
10,1,40,2,1,1,1,771,"f","right","11rf.bmp",40
10,2,6,1,1,1,1,656,"c","left","11lc.bmp",32
10,2,9,1,1,1,1,680,"e","left","11le.bmp",34
10,2,11,2,1,1,1,474,"b","right","11rb.bmp",36
10,2,16,2,1,1,1,685,"d","right","11rd.bmp",38
10,2,21,2,1,1,1,834,"c","right","11rc.bmp",37
10,2,23,1,1,1,1,548,"d","left","11ld.bmp",33
10,2,26,1,1,1,1,545,"f","left","11lf.bmp",35
10,2,32,2,1,1,1,709,"f","right","11rf.bmp",40
10,2,36,1,1,1,1,481,"b","left","11lb.bmp",31
10,2,40,2,1,1,1,811,"e","right","11re.bmp",39
10,3,1,1,1,1,1,621,"d","left","11ld.bmp",33
10,3,8,1,1,1,1,661,"e","left","11le.bmp",34
10,3,20,1,1,1,1,573,"c","left","11lc.bmp",32
10,3,24,2,1,1,1,737,"d","right","11rd.bmp",38
10,3,27,1,1,1,1,546,"b","left","11lb.bmp",31
10,3,31,2,1,1,1,613,"b","right","11rb.bmp",36
10,3,32,1,1,1,1,899,"f","left","11lf.bmp",35
10,3,34,2,1,1,1,543,"c","right","11rc.bmp",37
10,3,37,2,1,1,1,820,"f","right","11rf.bmp",40
10,3,38,2,1,1,1,549,"e","right","11re.bmp",39
10,4,3,1,1,1,1,726,"d","left","11ld.bmp",33
10,4,5,1,1,1,1,584,"c","left","11lc.bmp",32
10,4,9,1,1,1,1,417,"b","left","11lb.bmp",31
10,4,11,2,1,1,1,648,"c","right","11rc.bmp",37
10,4,20,2,1,1,1,704,"e","right","11re.bmp",39
10,4,22,2,1,1,1,713,"d","right","11rd.bmp",38
10,4,25,2,1,1,1,416,"b","right","11rb.bmp",36
10,4,27,1,1,1,1,677,"f","left","11lf.bmp",35
10,4,31,1,1,1,1,736,"e","left","11le.bmp",34
10,4,33,2,1,1,1,742,"f","right","11rf.bmp",40
12,1,4,1,1,1,1,685,"f","left","11lf.bmp",35
12,1,8,2,1,1,1,963,"e","right","11re.bmp",39
12,1,12,1,1,1,1,935,"e","left","11le.bmp",34
12,1,14,1,1,1,1,635,"c","left","11lc.bmp",32
12,1,19,2,1,1,1,812,"c","right","11rc.bmp",37
12,1,27,1,1,1,1,827,"d","left","11ld.bmp",33
12,1,28,2,1,1,1,555,"b","right","11rb.bmp",36
12,1,30,2,1,1,1,593,"d","right","11rd.bmp",38
12,1,33,1,1,1,1,628,"b","left","11lb.bmp",31
12,1,36,2,1,1,1,695,"f","right","11rf.bmp",40
12,2,5,1,1,1,1,758,"f","left","11lf.bmp",35
12,2,11,1,1,1,1,594,"b","left","11lb.bmp",31
12,2,12,2,1,1,1,497,"e","right","11re.bmp",39
12,2,15,2,1,1,1,546,"b","right","11rb.bmp",36
12,2,24,1,1,1,1,682,"e","left","11le.bmp",34
12,2,27,2,1,1,1,697,"c","right","11rc.bmp",37
12,2,28,1,1,1,1,506,"d","left","11ld.bmp",33
12,2,30,1,1,1,1,559,"c","left","11lc.bmp",32
12,2,32,2,1,1,1,537,"d","right","11rd.bmp",38
12,2,33,2,1,1,1,454,"f","right","11rf.bmp",40
12,3,3,2,1,1,1,695,"e","right","11re.bmp",39
12,3,5,2,1,1,1,494,"f","right","11rf.bmp",40
12,3,8,2,1,1,1,518,"b","right","11rb.bmp",36
12,3,11,1,1,1,1,583,"b","left","11lb.bmp",31
12,3,24,1,1,1,1,684,"c","left","11lc.bmp",32
12,3,26,2,1,1,1,676,"c","right","11rc.bmp",37
12,3,27,2,1,1,1,536,"d","right","11rd.bmp",38
12,3,32,1,1,1,1,506,"f","left","11lf.bmp",35
12,3,34,1,1,1,1,543,"d","left","11ld.bmp",33
12,3,40,1,1,1,1,774,"e","left","11le.bmp",34
12,4,7,2,1,1,1,544,"c","right","11rc.bmp",37
12,4,8,1,1,1,1,554,"e","left","11le.bmp",34
12,4,13,2,1,1,1,813,"e","right","11re.bmp",39
12,4,17,1,1,1,1,881,"f","left","11lf.bmp",35
12,4,18,2,1,1,1,469,"b","right","11rb.bmp",36
12,4,25,1,1,1,1,646,"b","left","11lb.bmp",31
12,4,30,1,1,1,1,643,"d","left","11ld.bmp",33
12,4,31,1,1,1,1,588,"c","left","11lc.bmp",32
12,4,35,2,1,1,1,599,"f","right","11rf.bmp",40
12,4,39,2,1,1,1,362,"d","right","11rd.bmp",38
13,1,2,2,1,1,1,576,"e","right","11re.bmp",39
13,1,3,2,1,1,1,776,"d","right","11rd.bmp",38
13,1,8,1,1,1,1,620,"f","left","11lf.bmp",35
13,1,13,1,1,1,1,482,"d","left","11ld.bmp",33
13,1,15,2,1,1,1,565,"c","right","11rc.bmp",37
13,1,18,1,1,1,1,578,"b","left","11lb.bmp",31
13,1,21,1,1,1,1,634,"c","left","11lc.bmp",32
13,1,31,2,1,1,1,722,"f","right","11rf.bmp",40
13,1,37,1,1,1,1,569,"e","left","11le.bmp",34
13,1,38,2,1,1,1,568,"b","right","11rb.bmp",36
13,2,9,1,1,1,1,354,"f","left","11lf.bmp",35
13,2,10,2,1,1,1,481,"c","right","11rc.bmp",37
13,2,14,1,1,1,1,401,"c","left","11lc.bmp",32
13,2,18,2,1,1,1,342,"e","right","11re.bmp",39
13,2,21,1,1,1,1,604,"d","left","11ld.bmp",33
13,2,22,2,1,1,1,608,"d","right","11rd.bmp",38
13,2,23,2,1,1,1,443,"f","right","11rf.bmp",40
13,2,26,1,1,1,1,588,"e","left","11le.bmp",34
13,2,30,2,1,1,1,445,"b","right","11rb.bmp",36
13,2,35,1,1,1,1,455,"b","left","11lb.bmp",31
13,3,5,1,1,1,1,590,"e","left","11le.bmp",34
13,3,7,2,1,1,1,633,"e","right","11re.bmp",39
13,3,12,1,1,1,1,478,"c","left","11lc.bmp",32
13,3,16,2,1,1,1,553,"d","right","11rd.bmp",38
13,3,24,1,1,1,1,479,"d","left","11ld.bmp",33
13,3,29,1,1,1,1,536,"f","left","11lf.bmp",35
13,3,34,2,1,1,1,381,"b","right","11rb.bmp",36
13,3,35,1,1,1,1,431,"b","left","11lb.bmp",31
13,3,37,2,1,1,1,395,"f","right","11rf.bmp",40
13,3,38,2,1,1,1,349,"c","right","11rc.bmp",37
13,4,3,1,1,1,1,408,"b","left","11lb.bmp",31
13,4,4,1,1,1,1,523,"c","left","11lc.bmp",32
13,4,9,2,1,1,0,333,"c","right","11rc.bmp",37
13,4,16,2,1,1,1,487,"d","right","11rd.bmp",38
13,4,19,1,1,1,1,882,"f","left","11lf.bmp",35
13,4,23,2,1,1,1,514,"f","right","11rf.bmp",40
13,4,24,2,1,1,1,629,"e","right","11re.bmp",39
13,4,31,2,1,1,1,595,"b","right","11rb.bmp",36
13,4,32,1,1,1,1,507,"e","left","11le.bmp",34
13,4,39,1,1,1,1,523,"d","left","11ld.bmp",33
14,1,1,2,1,1,1,833,"f","right","11rf.bmp",40
14,1,2,2,1,1,1,652,"c","right","11rc.bmp",37
14,1,6,1,1,1,1,715,"f","left","11lf.bmp",35
14,1,10,2,1,1,1,579,"e","right","11re.bmp",39
14,1,16,1,1,1,1,573,"b","left","11lb.bmp",31
14,1,17,1,1,1,1,597,"d","left","11ld.bmp",33
14,1,19,2,1,1,1,891,"b","right","11rb.bmp",36
14,1,26,2,1,1,1,502,"d","right","11rd.bmp",38
14,1,31,1,1,1,1,661,"e","left","11le.bmp",34
14,1,39,1,1,1,1,927,"c","left","11lc.bmp",32
14,2,2,1,1,1,1,437,"b","left","11lb.bmp",31
14,2,3,2,1,1,1,589,"f","right","11rf.bmp",40
14,2,4,1,1,1,1,460,"c","left","11lc.bmp",32
14,2,12,2,1,1,1,666,"d","right","11rd.bmp",38
14,2,17,2,1,1,1,536,"c","right","11rc.bmp",37
14,2,27,1,1,1,1,474,"f","left","11lf.bmp",35
14,2,28,1,1,1,1,611,"d","left","11ld.bmp",33
14,2,30,2,1,1,1,544,"e","right","11re.bmp",39
14,2,34,1,1,1,1,424,"e","left","11le.bmp",34
14,2,35,2,1,1,1,459,"b","right","11rb.bmp",36
14,3,3,2,1,1,1,447,"b","right","11rb.bmp",36
14,3,9,2,1,1,1,455,"c","right","11rc.bmp",37
14,3,12,1,1,1,1,506,"b","left","11lb.bmp",31
14,3,22,2,1,1,1,502,"e","right","11re.bmp",39
14,3,29,1,1,1,1,565,"f","left","11lf.bmp",35
14,3,34,2,1,1,1,594,"d","right","11rd.bmp",38
14,3,35,1,1,1,1,777,"d","left","11ld.bmp",33
14,3,36,1,1,1,1,574,"c","left","11lc.bmp",32
14,3,39,1,1,1,1,577,"e","left","11le.bmp",34
14,3,40,2,1,1,1,735,"f","right","11rf.bmp",40
14,4,3,2,1,1,1,594,"e","right","11re.bmp",39
14,4,4,2,1,1,1,350,"b","right","11rb.bmp",36
14,4,8,2,1,1,1,471,"f","right","11rf.bmp",40
14,4,12,2,1,1,1,519,"d","right","11rd.bmp",38
14,4,22,1,1,1,1,540,"f","left","11lf.bmp",35
14,4,23,1,1,1,1,468,"d","left","11ld.bmp",33
14,4,26,1,1,1,1,355,"e","left","11le.bmp",34
14,4,30,2,1,1,1,547,"c","right","11rc.bmp",37
14,4,35,1,1,1,1,574,"c","left","11lc.bmp",32
14,4,36,1,1,1,1,606,"b","left","11lb.bmp",31
15,1,2,2,1,1,1,645,"f","right","11rf.bmp",40
15,1,3,2,1,1,1,567,"c","right","11rc.bmp",37
15,1,7,2,1,1,1,631,"b","right","11rb.bmp",36
15,1,11,2,1,1,1,616,"d","right","11rd.bmp",38
15,1,15,1,1,1,1,965,"e","left","11le.bmp",34
15,1,19,1,1,1,1,823,"b","left","11lb.bmp",31
15,1,20,1,1,1,1,698,"c","left","11lc.bmp",32
15,1,21,1,1,1,1,643,"d","left","11ld.bmp",33
15,1,25,1,1,1,1,573,"f","left","11lf.bmp",35
15,1,29,2,1,1,1,535,"e","right","11re.bmp",39
15,2,8,1,1,1,1,545,"c","left","11lc.bmp",32
15,2,10,1,1,1,1,449,"b","left","11lb.bmp",31
15,2,17,2,1,1,1,522,"e","right","11re.bmp",39
15,2,21,2,1,1,1,842,"d","right","11rd.bmp",38
15,2,22,2,1,1,0,534,"c","right","11rc.bmp",37
15,2,26,1,1,1,1,698,"e","left","11le.bmp",34
15,2,27,1,1,1,1,619,"d","left","11ld.bmp",33
15,2,29,1,1,1,1,606,"f","left","11lf.bmp",35
15,2,34,2,1,1,1,471,"b","right","11rb.bmp",36
15,2,37,2,1,1,1,667,"f","right","11rf.bmp",40
15,3,1,2,1,1,1,648,"f","right","11rf.bmp",40
15,3,6,2,1,1,1,493,"e","right","11re.bmp",39
15,3,8,1,1,1,1,528,"b","left","11lb.bmp",31
15,3,12,2,1,1,1,531,"b","right","11rb.bmp",36
15,3,13,1,1,1,1,535,"e","left","11le.bmp",34
15,3,17,2,1,1,1,535,"c","right","11rc.bmp",37
15,3,26,1,1,1,1,561,"d","left","11ld.bmp",33
15,3,33,1,1,1,1,619,"c","left","11lc.bmp",32
15,3,35,1,1,1,1,587,"f","left","11lf.bmp",35
15,3,40,2,1,1,1,723,"d","right","11rd.bmp",38
15,4,9,2,1,1,1,496,"b","right","11rb.bmp",36
15,4,12,2,1,1,1,628,"c","right","11rc.bmp",37
15,4,18,1,1,1,1,454,"b","left","11lb.bmp",31
15,4,23,1,1,1,1,604,"d","left","11ld.bmp",33
15,4,25,2,1,1,1,682,"d","right","11rd.bmp",38
15,4,28,1,1,1,1,658,"f","left","11lf.bmp",35
15,4,29,2,1,1,1,502,"e","right","11re.bmp",39
15,4,30,1,1,1,1,573,"c","left","11lc.bmp",32
15,4,32,2,1,1,1,647,"f","right","11rf.bmp",40
15,4,34,1,1,1,1,636,"e","left","11le.bmp",34
18,1,1,1,1,1,1,780,"d","left","11ld.bmp",33
18,1,3,1,1,1,0,562,"e","left","11le.bmp",34
18,1,5,2,1,1,1,803,"d","right","11rd.bmp",38
18,1,6,2,1,1,1,552,"b","right","11rb.bmp",36
18,1,15,1,1,1,1,656,"c","left","11lc.bmp",32
18,1,17,1,1,1,1,434,"b","left","11lb.bmp",31
18,1,21,2,1,1,1,796,"e","right","11re.bmp",39
18,1,31,2,1,1,1,749,"c","right","11rc.bmp",37
18,1,32,2,1,1,1,898,"f","right","11rf.bmp",40
18,1,33,1,1,1,1,714,"f","left","11lf.bmp",35
18,2,6,1,1,1,1,556,"e","left","11le.bmp",34
18,2,11,1,1,1,1,551,"f","left","11lf.bmp",35
18,2,15,1,1,1,1,527,"c","left","11lc.bmp",32
18,2,23,2,1,1,1,680,"b","right","11rb.bmp",36
18,2,27,2,1,1,1,492,"d","right","11rd.bmp",38
18,2,32,2,1,1,1,720,"f","right","11rf.bmp",40
18,2,33,1,1,1,1,506,"b","left","11lb.bmp",31
18,2,34,2,1,1,1,746,"c","right","11rc.bmp",37
18,2,35,1,1,1,1,604,"d","left","11ld.bmp",33
18,2,40,2,1,1,1,803,"e","right","11re.bmp",39
18,3,4,2,1,1,1,703,"e","right","11re.bmp",39
18,3,5,2,1,1,1,724,"c","right","11rc.bmp",37
18,3,14,2,1,1,1,701,"d","right","11rd.bmp",38
18,3,15,1,1,1,1,585,"d","left","11ld.bmp",33
18,3,17,1,1,1,1,498,"b","left","11lb.bmp",31
18,3,18,2,1,1,1,599,"b","right","11rb.bmp",36
18,3,20,2,1,1,1,852,"f","right","11rf.bmp",40
18,3,32,1,1,1,1,711,"c","left","11lc.bmp",32
18,3,33,1,1,1,1,627,"f","left","11lf.bmp",35
18,3,34,1,1,1,1,643,"e","left","11le.bmp",34
18,4,2,1,1,1,0,644,"e","left","11le.bmp",34
18,4,12,2,1,1,1,793,"b","right","11rb.bmp",36
18,4,20,1,1,1,1,731,"f","left","11lf.bmp",35
18,4,25,1,1,1,1,690,"b","left","11lb.bmp",31
18,4,27,2,1,1,1,810,"c","right","11rc.bmp",37
18,4,28,1,1,1,1,570,"c","left","11lc.bmp",32
18,4,32,1,1,1,1,634,"d","left","11ld.bmp",33
18,4,35,2,1,1,1,1072,"e","right","11re.bmp",39
18,4,39,2,1,1,1,709,"d","right","11rd.bmp",38
18,4,40,2,1,1,1,839,"f","right","11rf.bmp",40
20,1,4,1,1,1,1,668,"e","left","11le.bmp",34
20,1,7,1,1,1,1,862,"d","left","11ld.bmp",33
20,1,17,2,1,1,1,645,"f","right","11rf.bmp",40
20,1,19,2,1,1,1,648,"d","right","11rd.bmp",38
20,1,21,2,1,1,1,430,"b","right","11rb.bmp",36
20,1,23,2,1,1,1,478,"e","right","11re.bmp",39
20,1,27,1,1,1,1,964,"f","left","11lf.bmp",35
20,1,29,2,1,1,1,460,"c","right","11rc.bmp",37
20,1,31,1,1,1,1,464,"b","left","11lb.bmp",31
20,1,36,1,1,1,1,666,"c","left","11lc.bmp",32
20,2,4,1,1,1,1,864,"e","left","11le.bmp",34
20,2,12,1,1,1,1,675,"b","left","11lb.bmp",31
20,2,13,1,1,1,1,683,"d","left","11ld.bmp",33
20,2,14,2,1,1,1,812,"f","right","11rf.bmp",40
20,2,15,1,1,1,1,830,"f","left","11lf.bmp",35
20,2,19,2,1,1,1,631,"d","right","11rd.bmp",38
20,2,20,2,1,1,1,721,"e","right","11re.bmp",39
20,2,25,2,1,1,1,611,"c","right","11rc.bmp",37
20,2,33,1,1,1,1,605,"c","left","11lc.bmp",32
20,2,35,2,1,1,1,754,"b","right","11rb.bmp",36
20,3,1,2,1,1,1,541,"f","right","11rf.bmp",40
20,3,2,2,1,1,1,986,"e","right","11re.bmp",39
20,3,8,1,1,1,1,713,"d","left","11ld.bmp",33
20,3,11,1,1,1,1,764,"e","left","11le.bmp",34
20,3,17,1,1,1,1,505,"f","left","11lf.bmp",35
20,3,23,2,1,1,1,460,"d","right","11rd.bmp",38
20,3,28,1,1,1,1,678,"c","left","11lc.bmp",32
20,3,33,2,1,1,1,415,"b","right","11rb.bmp",36
20,3,37,2,1,1,1,545,"c","right","11rc.bmp",37
20,3,39,1,1,1,1,498,"b","left","11lb.bmp",31
20,4,2,1,1,1,1,919,"c","left","11lc.bmp",32
20,4,4,1,1,1,1,433,"b","left","11lb.bmp",31
20,4,8,1,1,1,1,516,"f","left","11lf.bmp",35
20,4,10,1,1,1,1,415,"d","left","11ld.bmp",33
20,4,12,2,1,1,1,763,"f","right","11rf.bmp",40
20,4,20,1,1,1,1,551,"e","left","11le.bmp",34
20,4,24,2,1,1,1,604,"b","right","11rb.bmp",36
20,4,33,2,1,1,1,635,"d","right","11rd.bmp",38
20,4,34,2,1,1,1,541,"c","right","11rc.bmp",37
20,4,36,2,1,1,1,573,"e","right","11re.bmp",39
22,1,3,2,1,1,1,1480,"d","right","11rd.bmp",38
22,1,4,1,1,1,1,898,"b","left","11lb.bmp",31
22,1,11,2,1,1,1,1418,"f","right","11rf.bmp",40
22,1,14,1,1,1,1,809,"c","left","11lc.bmp",32
22,1,17,2,1,1,1,1015,"c","right","11rc.bmp",37
22,1,27,2,1,1,1,707,"b","right","11rb.bmp",36
22,1,28,2,1,1,1,717,"e","right","11re.bmp",39
22,1,29,1,1,1,1,871,"e","left","11le.bmp",34
22,1,30,1,1,1,1,836,"d","left","11ld.bmp",33
22,1,38,1,1,1,1,632,"f","left","11lf.bmp",35
22,2,3,2,1,1,1,582,"c","right","11rc.bmp",37
22,2,12,2,1,1,1,574,"d","right","11rd.bmp",38
22,2,13,1,1,1,1,612,"e","left","11le.bmp",34
22,2,21,2,1,1,1,719,"f","right","11rf.bmp",40
22,2,26,2,1,1,1,484,"b","right","11rb.bmp",36
22,2,28,1,1,1,1,625,"b","left","11lb.bmp",31
22,2,30,1,1,1,1,482,"f","left","11lf.bmp",35
22,2,31,1,1,1,1,425,"c","left","11lc.bmp",32
22,2,34,1,1,1,1,529,"d","left","11ld.bmp",33
22,2,38,2,1,1,1,618,"e","right","11re.bmp",39
22,3,13,2,1,1,1,630,"f","right","11rf.bmp",40
22,3,18,2,1,1,1,488,"c","right","11rc.bmp",37
22,3,20,1,1,1,1,739,"f","left","11lf.bmp",35
22,3,21,1,1,1,1,819,"d","left","11ld.bmp",33
22,3,24,2,1,1,1,564,"b","right","11rb.bmp",36
22,3,27,2,1,1,1,480,"e","right","11re.bmp",39
22,3,28,1,1,1,1,472,"c","left","11lc.bmp",32
22,3,35,1,1,1,1,538,"b","left","11lb.bmp",31
22,3,36,1,1,1,1,673,"e","left","11le.bmp",34
22,3,37,2,1,1,1,585,"d","right","11rd.bmp",38
22,4,1,1,1,1,1,636,"d","left","11ld.bmp",33
22,4,10,2,1,1,1,431,"b","right","11rb.bmp",36
22,4,15,2,1,1,1,687,"f","right","11rf.bmp",40
22,4,16,2,1,1,1,837,"d","right","11rd.bmp",38
22,4,23,1,1,1,1,632,"b","left","11lb.bmp",31
22,4,24,2,1,1,1,597,"c","right","11rc.bmp",37
22,4,27,1,1,1,1,602,"c","left","11lc.bmp",32
22,4,29,1,1,1,1,513,"e","left","11le.bmp",34
22,4,33,2,1,1,1,580,"e","right","11re.bmp",39
22,4,39,1,1,1,1,528,"f","left","11lf.bmp",35
26,1,4,1,1,1,1,669,"b","left","11lb.bmp",31
26,1,5,2,1,1,1,543,"b","right","11rb.bmp",36
26,1,8,2,1,1,1,791,"c","right","11rc.bmp",37
26,1,13,2,1,1,1,927,"f","right","11rf.bmp",40
26,1,14,1,1,1,1,518,"d","left","11ld.bmp",33
26,1,15,2,1,1,1,597,"d","right","11rd.bmp",38
26,1,28,1,1,1,1,1011,"f","left","11lf.bmp",35
26,1,30,1,1,1,1,601,"e","left","11le.bmp",34
26,1,34,2,1,1,1,688,"e","right","11re.bmp",39
26,1,39,1,1,1,1,471,"c","left","11lc.bmp",32
26,2,2,1,1,1,1,559,"d","left","11ld.bmp",33
26,2,5,2,1,1,1,803,"f","right","11rf.bmp",40
26,2,12,2,1,1,1,593,"e","right","11re.bmp",39
26,2,13,1,1,1,1,529,"e","left","11le.bmp",34
26,2,16,2,1,1,1,760,"d","right","11rd.bmp",38
26,2,18,1,1,1,1,769,"f","left","11lf.bmp",35
26,2,20,2,1,1,1,549,"c","right","11rc.bmp",37
26,2,21,1,1,1,1,533,"c","left","11lc.bmp",32
26,2,29,1,1,1,1,555,"b","left","11lb.bmp",31
26,2,40,2,1,1,1,573,"b","right","11rb.bmp",36
26,3,2,2,1,1,1,519,"e","right","11re.bmp",39
26,3,10,1,1,1,1,728,"e","left","11le.bmp",34
26,3,13,1,1,1,1,609,"c","left","11lc.bmp",32
26,3,15,2,1,1,1,634,"b","right","11rb.bmp",36
26,3,20,1,1,1,1,549,"f","left","11lf.bmp",35
26,3,22,1,1,1,1,471,"b","left","11lb.bmp",31
26,3,25,2,1,1,1,721,"d","right","11rd.bmp",38
26,3,36,2,1,1,1,846,"c","right","11rc.bmp",37
26,3,37,1,1,1,1,675,"d","left","11ld.bmp",33
26,3,38,2,1,1,1,569,"f","right","11rf.bmp",40
26,4,3,2,1,1,1,422,"b","right","11rb.bmp",36
26,4,6,1,1,1,1,484,"f","left","11lf.bmp",35
26,4,7,1,1,1,1,477,"e","left","11le.bmp",34
26,4,10,2,1,1,1,492,"e","right","11re.bmp",39
26,4,12,1,1,1,1,587,"c","left","11lc.bmp",32
26,4,19,2,1,1,0,575,"f","right","11rf.bmp",40
26,4,23,1,1,1,1,489,"d","left","11ld.bmp",33
26,4,25,2,1,1,1,577,"c","right","11rc.bmp",37
26,4,26,2,1,1,1,599,"d","right","11rd.bmp",38
26,4,30,1,1,1,1,563,"b","left","11lb.bmp",31
6,1,4,1,1,1,1,1244,"d","left","11ld.bmp",33
6,1,7,1,1,1,1,674,"b","left","11lb.bmp",31
6,1,11,1,1,1,1,784,"e","left","11le.bmp",34
6,1,25,2,1,1,1,831,"f","right","11rf.bmp",40
6,1,27,2,1,1,1,754,"c","right","11rc.bmp",37
6,1,30,2,1,1,1,1051,"d","right","11rd.bmp",38
6,1,34,1,1,1,1,1176,"f","left","11lf.bmp",35
6,1,35,2,1,1,1,1071,"e","right","11re.bmp",39
6,1,36,2,1,1,1,828,"b","right","11rb.bmp",36
6,1,38,1,1,1,1,940,"c","left","11lc.bmp",32
6,2,4,2,1,1,1,744,"d","right","11rd.bmp",38
6,2,6,1,1,1,1,608,"b","left","11lb.bmp",31
6,2,12,1,1,1,1,749,"c","left","11lc.bmp",32
6,2,13,2,1,1,1,685,"f","right","11rf.bmp",40
6,2,26,1,1,1,1,919,"f","left","11lf.bmp",35
6,2,27,2,1,1,1,825,"c","right","11rc.bmp",37
6,2,28,1,1,1,1,721,"d","left","11ld.bmp",33
6,2,31,2,1,1,1,692,"b","right","11rb.bmp",36
6,2,35,1,1,1,1,568,"e","left","11le.bmp",34
6,2,39,2,1,1,1,825,"e","right","11re.bmp",39
6,3,2,2,1,1,1,610,"d","right","11rd.bmp",38
6,3,9,1,1,1,1,536,"d","left","11ld.bmp",33
6,3,15,2,1,1,1,635,"f","right","11rf.bmp",40
6,3,16,1,1,1,1,719,"e","left","11le.bmp",34
6,3,18,2,1,1,1,1097,"c","right","11rc.bmp",37
6,3,19,1,1,1,1,1002,"f","left","11lf.bmp",35
6,3,22,2,1,1,1,791,"b","right","11rb.bmp",36
6,3,33,2,1,1,1,665,"e","right","11re.bmp",39
6,3,35,1,1,1,1,633,"b","left","11lb.bmp",31
6,3,38,1,1,1,1,644,"c","left","11lc.bmp",32
6,4,1,2,1,1,1,614,"c","right","11rc.bmp",37
6,4,5,2,1,1,1,592,"e","right","11re.bmp",39
6,4,12,1,1,1,1,574,"b","left","11lb.bmp",31
6,4,17,1,1,1,1,425,"d","left","11ld.bmp",33
6,4,18,2,1,1,1,468,"b","right","11rb.bmp",36
6,4,23,1,1,1,1,535,"e","left","11le.bmp",34
6,4,25,2,1,1,1,615,"d","right","11rd.bmp",38
6,4,30,2,1,1,1,576,"f","right","11rf.bmp",40
6,4,31,1,1,1,1,650,"c","left","11lc.bmp",32
6,4,39,1,1,1,1,1087,"f","left","11lf.bmp",35
8,1,2,2,1,1,1,681,"c","right","11rc.bmp",37
8,1,5,1,1,1,1,646,"c","left","11lc.bmp",32
8,1,6,1,1,1,0,462,"e","left","11le.bmp",34
8,1,7,1,1,1,1,898,"d","left","11ld.bmp",33
8,1,8,2,1,1,1,612,"e","right","11re.bmp",39
8,1,23,1,1,1,1,596,"f","left","11lf.bmp",35
8,1,28,2,1,1,1,652,"f","right","11rf.bmp",40
8,1,31,2,1,1,1,443,"d","right","11rd.bmp",38
8,1,32,1,1,1,1,614,"b","left","11lb.bmp",31
8,1,35,2,1,1,1,503,"b","right","11rb.bmp",36
8,2,3,2,1,1,1,581,"d","right","11rd.bmp",38
8,2,10,1,1,1,1,661,"b","left","11lb.bmp",31
8,2,14,2,1,1,1,676,"c","right","11rc.bmp",37
8,2,17,2,1,1,1,484,"b","right","11rb.bmp",36
8,2,18,1,1,1,1,698,"e","left","11le.bmp",34
8,2,24,1,1,1,1,599,"f","left","11lf.bmp",35
8,2,30,1,1,1,1,707,"c","left","11lc.bmp",32
8,2,31,1,1,1,1,752,"d","left","11ld.bmp",33
8,2,35,2,1,1,1,682,"e","right","11re.bmp",39
8,2,37,2,1,1,1,686,"f","right","11rf.bmp",40
8,3,1,1,1,1,1,726,"f","left","11lf.bmp",35
8,3,9,1,1,1,1,790,"e","left","11le.bmp",34
8,3,19,2,1,1,1,736,"e","right","11re.bmp",39
8,3,20,1,1,1,1,423,"b","left","11lb.bmp",31
8,3,21,2,1,1,1,372,"d","right","11rd.bmp",38
8,3,22,2,1,1,1,514,"b","right","11rb.bmp",36
8,3,25,1,1,1,0,455,"c","left","11lc.bmp",32
8,3,26,2,1,1,1,557,"c","right","11rc.bmp",37
8,3,34,2,1,1,1,616,"f","right","11rf.bmp",40
8,3,35,1,1,1,1,572,"d","left","11ld.bmp",33
8,4,4,2,1,1,1,657,"d","right","11rd.bmp",38
8,4,6,1,1,1,1,468,"b","left","11lb.bmp",31
8,4,16,1,1,1,1,797,"e","left","11le.bmp",34
8,4,17,2,1,1,1,550,"b","right","11rb.bmp",36
8,4,22,2,1,1,1,588,"f","right","11rf.bmp",40
8,4,23,2,1,1,1,526,"e","right","11re.bmp",39
8,4,26,1,1,1,1,702,"c","left","11lc.bmp",32
8,4,27,1,1,1,1,576,"f","left","11lf.bmp",35
8,4,31,1,1,1,1,666,"d","left","11ld.bmp",33
8,4,35,2,1,1,1,672,"c","right","11rc.bmp",37
9,1,1,1,1,1,1,648,"d","left","11ld.bmp",33
9,1,4,2,1,1,1,656,"b","right","11rb.bmp",36
9,1,7,1,1,1,1,764,"f","left","11lf.bmp",35
9,1,9,1,1,1,1,504,"b","left","11lb.bmp",31
9,1,12,2,1,1,1,725,"e","right","11re.bmp",39
9,1,16,1,1,1,1,576,"e","left","11le.bmp",34
9,1,23,1,1,1,1,539,"c","left","11lc.bmp",32
9,1,35,2,1,1,1,519,"d","right","11rd.bmp",38
9,1,36,2,1,1,1,537,"f","right","11rf.bmp",40
9,1,39,2,1,1,1,370,"c","right","11rc.bmp",37
9,2,6,1,1,1,1,603,"f","left","11lf.bmp",35
9,2,13,2,1,1,1,527,"e","right","11re.bmp",39
9,2,14,2,1,1,1,604,"f","right","11rf.bmp",40
9,2,25,1,1,1,1,525,"c","left","11lc.bmp",32
9,2,32,1,1,1,1,617,"e","left","11le.bmp",34
9,2,34,1,1,1,1,481,"b","left","11lb.bmp",31
9,2,35,2,1,1,1,757,"c","right","11rc.bmp",37
9,2,37,1,1,1,1,636,"d","left","11ld.bmp",33
9,2,38,2,1,1,1,462,"b","right","11rb.bmp",36
9,2,39,2,1,1,1,543,"d","right","11rd.bmp",38
9,3,1,2,1,1,1,707,"b","right","11rb.bmp",36
9,3,2,2,1,1,1,472,"c","right","11rc.bmp",37
9,3,14,1,1,1,1,548,"c","left","11lc.bmp",32
9,3,15,1,1,1,1,577,"f","left","11lf.bmp",35
9,3,21,1,1,1,1,488,"b","left","11lb.bmp",31
9,3,23,2,1,1,1,623,"e","right","11re.bmp",39
9,3,25,1,1,1,1,602,"d","left","11ld.bmp",33
9,3,30,2,1,1,1,669,"f","right","11rf.bmp",40
9,3,31,2,1,1,1,450,"d","right","11rd.bmp",38
9,3,32,1,1,1,1,551,"e","left","11le.bmp",34
9,4,9,1,1,1,1,525,"d","left","11ld.bmp",33
9,4,20,2,1,1,1,577,"d","right","11rd.bmp",38
9,4,25,1,1,1,1,487,"b","left","11lb.bmp",31
9,4,27,1,1,1,1,436,"c","left","11lc.bmp",32
9,4,28,2,1,1,1,577,"f","right","11rf.bmp",40
9,4,29,1,1,1,1,481,"e","left","11le.bmp",34
9,4,31,1,1,1,1,573,"f","left","11lf.bmp",35
9,4,36,2,1,1,1,404,"e","right","11re.bmp",39
9,4,38,2,1,1,1,438,"c","right","11rc.bmp",37
9,4,40,2,1,1,1,366,"b","right","11rb.bmp",36
